timestamp,timeIntervalSince1970,attitude.roll,attitude.pitch,attitude.yaw,gravity.x,gravity.y,gravity.z,magneticField.x,magneticField.y,magneticField.z,magneticField.accuracy,rotationRate.x,rotationRate.y,rotationRate.z,userAcceleration.x,userAcceleration.y,userAcceleration.z
"2018-06-06 23:15:11.949 +0000",1528326911.949241,-0.058694,0.091446,0.005366,-0.058415,-0.091319,-0.994107,0.000000,0.000000,0.000000,-1,-0.357359,-0.711505,-0.232379,0.008885,-0.014821,-0.049304
"2018-06-06 23:15:11.959 +0000",1528326911.959313,-0.066923,0.088831,0.002999,-0.066609,-0.088714,-0.993827,0.000000,0.000000,0.000000,-1,-0.250277,-0.859512,-0.207239,0.048970,0.036559,-0.067086
"2018-06-06 23:15:11.969 +0000",1528326911.969386,-0.074809,0.086936,0.001189,-0.074457,-0.086827,-0.993437,0.000000,0.000000,0.000000,-1,-0.188881,-0.760804,-0.144706,0.062066,0.063405,-0.059160
"2018-06-06 23:15:11.979 +0000",1528326911.979458,-0.080703,0.085135,0.000518,-0.080324,-0.085032,-0.993135,0.000000,0.000000,0.000000,-1,-0.184836,-0.530799,-0.016044,0.092912,0.077891,-0.046293
"2018-06-06 23:15:11.990 +0000",1528326911.989531,-0.084252,0.082862,0.001356,-0.083863,-0.082767,-0.993034,0.000000,0.000000,0.000000,-1,-0.231446,-0.284591,0.141823,0.114381,0.091495,-0.033318
"2018-06-06 23:15:12.000 +0000",1528326911.999603,-0.085542,0.080032,0.003922,-0.085164,-0.079947,-0.993154,0.000000,0.000000,0.000000,-1,-0.262467,-0.053808,0.323274,0.097188,0.087271,-0.019755
"2018-06-06 23:15:12.010 +0000",1528326912.009675,-0.085263,0.077252,0.008262,-0.084905,-0.077175,-0.993396,0.000000,0.000000,0.000000,-1,-0.222930,0.088309,0.491397,0.065634,0.071194,-0.025754
"2018-06-06 23:15:12.020 +0000",1528326912.019748,-0.084851,0.075186,0.013802,-0.084510,-0.075115,-0.993587,0.000000,0.000000,0.000000,-1,-0.132217,0.069526,0.580414,0.019187,0.064312,-0.043888
"2018-06-06 23:15:12.030 +0000",1528326912.029820,-0.085522,0.074245,0.019753,-0.085182,-0.074177,-0.993600,0.000000,0.000000,0.000000,-1,-0.012450,-0.059730,0.592671,-0.003151,0.041493,-0.057181
"2018-06-06 23:15:12.040 +0000",1528326912.039892,-0.087623,0.074353,0.025270,-0.087269,-0.074285,-0.993411,0.000000,0.000000,0.000000,-1,0.076455,-0.201897,0.522137,-0.003719,-0.004359,-0.039548
"2018-06-06 23:15:12.050 +0000",1528326912.049965,-0.090983,0.074866,0.029768,-0.090603,-0.074796,-0.993074,0.000000,0.000000,0.000000,-1,0.085841,-0.329840,0.409876,-0.000385,-0.003848,-0.039885
"2018-06-06 23:15:12.060 +0000",1528326912.060037,-0.094690,0.074620,0.033086,-0.094286,-0.074550,-0.992750,0.000000,0.000000,0.000000,-1,-0.035214,-0.323159,0.306911,0.053286,-0.006550,0.081236
"2018-06-06 23:15:12.070 +0000",1528326912.070109,-0.096572,0.072021,0.035489,-0.096172,-0.071959,-0.992760,0.000000,0.000000,0.000000,-1,-0.307008,-0.118393,0.250044,0.069652,0.036772,0.150689
"2018-06-06 23:15:12.080 +0000",1528326912.080182,-0.096148,0.066840,0.037221,-0.095785,-0.066790,-0.993159,0.000000,0.000000,0.000000,-1,-0.545361,0.117127,0.211476,0.069265,0.031603,0.151087
"2018-06-06 23:15:12.090 +0000",1528326912.090254,-0.093135,0.060482,0.038461,-0.092830,-0.060445,-0.993846,0.000000,0.000000,0.000000,-1,-0.627228,0.369549,0.172599,0.003185,0.036092,0.041529
"2018-06-06 23:15:12.100 +0000",1528326912.100327,-0.087287,0.053982,0.039305,-0.087049,-0.053956,-0.994742,0.000000,0.000000,0.000000,-1,-0.635616,0.669381,0.133692,0.009763,0.073457,-0.013025
"2018-06-06 23:15:12.110 +0000",1528326912.110399,-0.078003,0.033746,0.040154,-0.077879,-0.033739,-0.996392,0.000000,0.000000,0.000000,-1,-0.706482,1.082988,0.146889,0.042158,0.071657,0.018471
"2018-06-06 23:15:12.120 +0000",1528326912.120471,-0.069303,0.042348,0.041811,-0.069185,-0.042335,-0.996705,0.000000,0.000000,0.000000,-1,-0.886131,1.583834,0.227280,0.102343,0.053841,0.073564
"2018-06-06 23:15:12.131 +0000",1528326912.130544,-0.048792,0.031207,0.044251,-0.048749,-0.031201,-0.998324,0.000000,0.000000,0.000000,-1,-1.162716,2.209454,0.331919,0.114942,0.038404,0.116717
"2018-06-06 23:15:12.141 +0000",1528326912.140616,-0.021484,0.017041,0.047520,-0.021480,-0.017040,-0.999624,0.000000,0.000000,0.000000,-1,-1.470437,2.892305,0.380863,0.085750,0.054974,0.157568
"2018-06-06 23:15:12.151 +0000",1528326912.150689,0.012964,-0.000099,0.050735,0.012964,0.000099,-0.999916,0.000000,0.000000,0.000000,-1,-1.770882,3.568020,0.303919,0.001791,0.053230,0.198067
"2018-06-06 23:15:12.161 +0000",1528326912.160761,0.051464,-0.019349,0.053399,0.051432,0.019348,-0.998489,0.000000,0.000000,0.000000,-1,-1.953904,3.894147,0.161151,-0.044001,-0.002060,0.052917
"2018-06-06 23:15:12.171 +0000",1528326912.170833,0.093860,-0.039005,0.054960,0.093651,0.038996,-0.994841,0.000000,0.000000,0.000000,-1,-1.938088,4.324247,-0.036629,-0.038414,0.003866,-0.106294
"2018-06-06 23:15:12.181 +0000",1528326912.180906,0.141916,-0.057059,0.055528,0.141210,0.057028,-0.988336,0.000000,0.000000,0.000000,-1,-1.728521,4.927021,-0.182719,0.040491,0.057703,-0.167151
"2018-06-06 23:15:12.191 +0000",1528326912.190978,0.197178,-0.073518,0.056358,0.195374,0.073452,-0.977974,0.000000,0.000000,0.000000,-1,-1.612631,5.681522,-0.185092,0.171463,0.063984,-0.151771
"2018-06-06 23:15:12.201 +0000",1528326912.201050,0.261107,-0.090928,0.059065,0.257083,0.090803,-0.962114,0.000000,0.000000,0.000000,-1,-1.806197,6.529260,-0.113341,0.215359,0.071367,0.008211
"2018-06-06 23:15:12.211 +0000",1528326912.211123,0.331549,-0.110185,0.064130,0.323534,0.109962,-0.939805,0.000000,0.000000,0.000000,-1,-2.019126,7.045570,-0.078007,0.195203,0.039559,0.048982
"2018-06-06 23:15:12.221 +0000",1528326912.221195,0.396245,-0.128879,0.070138,0.382756,0.128522,-0.914866,0.000000,0.000000,0.000000,-1,-1.869491,5.795817,-0.123935,0.175486,0.026629,-0.122778
"2018-06-06 23:15:12.231 +0000",1528326912.231267,0.436040,-0.144098,0.073400,0.417976,0.143600,-0.897037,0.000000,0.000000,0.000000,-1,-1.417691,3.501725,-0.408084,0.162285,0.062241,-0.149258
"2018-06-06 23:15:12.241 +0000",1528326912.241340,0.464343,-0.159921,0.074273,0.442121,0.159240,-0.882707,0.000000,0.000000,0.000000,-1,-1.513894,2.639543,-0.630879,0.123187,0.087510,0.070924
"2018-06-06 23:15:12.251 +0000",1528326912.251412,0.492195,-0.177358,0.079653,0.465149,0.176429,-0.867473,0.000000,0.000000,0.000000,-1,-1.857702,2.732233,-0.186656,0.155304,0.100457,0.147807
"2018-06-06 23:15:12.261 +0000",1528326912.261485,0.521918,-0.193653,0.092392,0.489224,0.192445,-0.850661,0.000000,0.000000,0.000000,-1,-2.066373,2.668567,0.460099,0.301898,0.176146,0.152739
"2018-06-06 23:15:12.272 +0000",1528326912.271557,0.549517,-0.207300,0.111438,0.511094,0.205818,-0.834519,0.000000,0.000000,0.000000,-1,-2.101930,2.241203,1.039786,0.338928,0.173729,-0.010894
"2018-06-06 23:15:12.282 +0000",1528326912.281629,0.573881,-0.216446,0.134611,0.530228,0.214760,-0.820205,0.000000,0.000000,0.000000,-1,-1.911072,1.846644,1.538376,0.319793,0.164787,-0.025208
"2018-06-06 23:15:12.292 +0000",1528326912.291702,0.596094,-0.220670,0.160424,0.547801,0.218883,-0.807468,0.000000,0.000000,0.000000,-1,-1.676675,1.600741,1.956625,0.289907,0.131886,-0.156186
"2018-06-06 23:15:12.302 +0000",1528326912.301774,0.618129,-0.220824,0.188600,0.565440,0.219033,-0.795174,0.000000,0.000000,0.000000,-1,-1.548143,1.586413,2.317706,0.258367,0.123572,-0.152107
"2018-06-06 23:15:12.312 +0000",1528326912.311846,0.643189,-0.218829,0.219201,0.585447,0.217086,-0.781105,0.000000,0.000000,0.000000,-1,-1.621771,1.943063,2.560932,0.261385,0.098191,-0.008202
"2018-06-06 23:15:12.322 +0000",1528326912.321919,0.675190,-0.228261,0.229204,0.608833,0.226284,-0.760341,0.000000,0.000000,0.000000,-1,-1.380254,2.916784,-0.423855,-1.741447,0.431034,-0.215199
"2018-06-06 23:15:12.332 +0000",1528326912.331991,0.712356,-0.243712,0.235593,0.634303,0.241307,-0.734459,0.000000,0.000000,0.000000,-1,-1.612229,3.816284,-0.417480,-0.908046,-0.398335,-0.079429
"2018-06-06 23:15:12.342 +0000",1528326912.342064,0.762976,-0.254012,0.248033,0.668900,0.251290,-0.699590,0.000000,0.000000,0.000000,-1,-1.506608,4.985341,0.455876,0.412963,-0.303826,-0.066692
"2018-06-06 23:15:12.352 +0000",1528326912.352136,0.820794,-0.251805,0.269338,0.708613,0.249153,-0.660144,0.000000,0.000000,0.000000,-1,-1.268958,5.208827,2.033953,0.686040,0.118508,-0.380429
"2018-06-06 23:15:12.362 +0000",1528326912.362208,0.879457,-0.238836,0.299477,0.748524,0.236572,-0.619471,0.000000,0.000000,0.000000,-1,-1.381440,5.050683,3.023344,1.022991,0.255982,-0.078344
"2018-06-06 23:15:12.372 +0000",1528326912.372281,0.933627,-0.227312,0.330327,0.783106,0.225359,-0.579618,0.000000,0.000000,0.000000,-1,-1.741902,4.501597,2.569726,0.203771,0.340437,0.283064
"2018-06-06 23:15:12.382 +0000",1528326912.382353,0.980804,-0.223184,0.359954,0.810335,0.221336,-0.542556,0.000000,0.000000,0.000000,-1,-2.237504,3.898557,1.803247,-0.238176,0.122032,0.427138
"2018-06-06 23:15:12.392 +0000",1528326912.392425,1.025637,-0.224606,0.391034,0.833567,0.222723,-0.505529,0.000000,0.000000,0.000000,-1,-2.729290,3.747213,1.441441,-0.147410,0.034693,0.432928
"2018-06-06 23:15:12.402 +0000",1528326912.402498,1.071125,-0.227223,0.425856,0.855178,0.225273,-0.466821,0.000000,0.000000,0.000000,-1,-3.153860,3.733823,1.473568,0.022614,0.076943,0.410180
"2018-06-06 23:15:12.413 +0000",1528326912.412570,1.115389,-0.229680,0.464408,0.874497,0.227666,-0.428278,0.000000,0.000000,0.000000,-1,-3.505543,3.406736,1.490632,0.011077,0.071696,0.398569
"2018-06-06 23:15:12.423 +0000",1528326912.422643,1.151495,-0.231721,0.504681,0.888961,0.229653,-0.396241,0.000000,0.000000,0.000000,-1,-3.619831,2.381251,1.454566,-0.103973,-0.016335,0.176529
"2018-06-06 23:15:12.433 +0000",1528326912.432715,1.176184,-0.232202,0.543108,0.898370,0.230121,-0.374132,0.000000,0.000000,0.000000,-1,-3.330695,1.325088,1.409957,-0.266336,-0.107867,-0.131452
"2018-06-06 23:15:12.443 +0000",1528326912.442787,1.192669,-0.230896,0.576290,0.904694,0.228850,-0.359383,0.000000,0.000000,0.000000,-1,-2.780998,0.796895,1.289916,-0.328202,-0.126250,-0.279166
"2018-06-06 23:15:12.453 +0000",1528326912.452860,1.207781,-0.229355,0.604550,0.910350,0.227349,-0.345796,0.000000,0.000000,0.000000,-1,-2.422383,0.925020,1.078641,-0.258052,-0.115457,-0.100966
"2018-06-06 23:15:12.463 +0000",1528326912.462932,1.226766,-0.228388,0.630982,0.916957,0.226407,-0.328526,0.000000,0.000000,0.000000,-1,-2.362000,1.426311,0.949808,-0.149119,-0.145856,0.138127
"2018-06-06 23:15:12.473 +0000",1528326912.473004,1.252023,-0.227288,0.656630,0.925197,0.225336,-0.305342,0.000000,0.000000,0.000000,-1,-2.250926,2.132709,0.896750,-0.035655,-0.138300,0.165678
"2018-06-06 23:15:12.483 +0000",1528326912.483077,1.295228,-0.224822,0.659020,0.938054,0.222933,-0.265246,0.000000,0.000000,0.000000,-1,0.667236,4.835852,0.109483,-0.583027,0.144972,-0.893628
"2018-06-06 23:15:12.493 +0000",1528326912.493149,1.336304,-0.217951,0.645553,0.949622,0.216230,-0.226853,0.000000,0.000000,0.000000,-1,1.471990,3.994625,0.461232,-0.382956,-0.080045,-1.082886
"2018-06-06 23:15:12.503 +0000",1528326912.503222,1.361022,-0.209480,0.634994,0.956696,0.207951,-0.203686,0.000000,0.000000,0.000000,-1,1.088099,2.273849,0.604469,0.041732,-0.212010,-0.350757
"2018-06-06 23:15:12.513 +0000",1528326912.513294,1.373876,-0.201206,0.628040,0.960889,0.199851,-0.191703,0.000000,0.000000,0.000000,-1,0.740684,1.205431,0.704342,-0.343091,-0.012839,-0.439187
"2018-06-06 23:15:12.523 +0000",1528326912.523366,1.382847,-0.191806,0.625638,0.964373,0.190633,-0.183418,0.000000,0.000000,0.000000,-1,0.280253,0.879358,0.931409,-0.262759,-0.081517,-0.362496
"2018-06-06 23:15:12.533 +0000",1528326912.533438,1.391113,-0.181569,0.628877,0.967726,0.180573,-0.175780,0.000000,0.000000,0.000000,-1,-0.254349,0.732328,1.083872,-0.159102,-0.090699,-0.256166
"2018-06-06 23:15:12.544 +0000",1528326912.543510,1.399235,-0.172017,0.636448,0.970777,0.171170,-0.168201,0.000000,0.000000,0.000000,-1,-0.649919,0.664450,1.039403,-0.133207,0.000354,-0.210278
"2018-06-06 23:15:12.554 +0000",1528326912.553582,1.408767,-0.165189,0.645570,0.973467,0.164439,-0.159125,0.000000,0.000000,0.000000,-1,-0.779910,0.860876,0.708974,-0.126177,0.019094,-0.150522
"2018-06-06 23:15:12.564 +0000",1528326912.563655,1.420243,-0.164224,0.653320,0.975386,0.163487,-0.147967,0.000000,0.000000,0.000000,-1,-0.706511,1.051693,0.017721,-0.170942,-0.009923,-0.097242
"2018-06-06 23:15:12.574 +0000",1528326912.573727,1.432709,-0.171852,0.658296,0.975891,0.171008,-0.135621,0.000000,0.000000,0.000000,-1,-0.564136,1.206317,-0.897529,-0.293869,-0.050311,-0.096862
"2018-06-06 23:15:12.584 +0000",1528326912.583800,1.447115,-0.183834,0.662673,0.975640,0.182801,-0.121288,0.000000,0.000000,0.000000,-1,-0.586747,1.408094,-1.123852,-0.046898,0.012115,0.125087
"2018-06-06 23:15:12.594 +0000",1528326912.593872,1.462485,-0.194319,0.667491,0.975430,0.193098,-0.106065,0.000000,0.000000,0.000000,-1,-0.589390,1.389644,-0.914148,0.201328,0.040819,0.202775
"2018-06-06 23:15:12.604 +0000",1528326912.603944,1.473825,-0.201513,0.672980,0.975162,0.200152,-0.094861,0.000000,0.000000,0.000000,-1,-0.599886,0.882138,-0.578924,0.232419,-0.113909,0.102658
"2018-06-06 23:15:12.614 +0000",1528326912.614017,1.480049,-0.206706,0.677258,0.974685,0.205237,-0.088694,0.000000,0.000000,0.000000,-1,-0.397664,0.432113,-0.459148,0.139207,-0.113333,-0.009847
"2018-06-06 23:15:12.624 +0000",1528326912.624089,1.482911,-0.212672,0.678527,0.973698,0.211073,-0.085794,0.000000,0.000000,0.000000,-1,-0.106136,0.215247,-0.645458,-0.025562,-0.085233,-0.065191
"2018-06-06 23:15:12.634 +0000",1528326912.634161,1.485141,-0.222826,0.677033,0.971701,0.220986,-0.083436,0.000000,0.000000,0.000000,-1,0.104689,0.293751,-1.164173,-0.195029,-0.111688,-0.030685
"2018-06-06 23:15:12.644 +0000",1528326912.644234,1.489168,-0.238815,0.674196,0.968383,0.236552,-0.079223,0.000000,0.000000,0.000000,-1,0.136224,0.535582,-1.744390,-0.233932,-0.220606,0.071304
"2018-06-06 23:15:12.654 +0000",1528326912.654306,1.496181,-0.258348,0.672205,0.964123,0.255484,-0.072072,0.000000,0.000000,0.000000,-1,0.007236,0.815984,-1.942273,-0.144634,-0.330298,0.198979
"2018-06-06 23:15:12.664 +0000",1528326912.664378,1.505063,-0.275051,0.671412,0.960333,0.271596,-0.063217,0.000000,0.000000,0.000000,-1,-0.052547,0.892128,-1.552531,0.180506,-0.122594,0.198135
"2018-06-06 23:15:12.674 +0000",1528326912.674451,1.512109,-0.288751,0.672024,0.956950,0.284755,-0.056225,0.000000,0.000000,0.000000,-1,-0.182211,0.595483,-1.317531,0.240789,0.027226,0.201062
"2018-06-06 23:15:12.685 +0000",1528326912.684523,1.516515,-0.301870,0.674602,0.953376,0.297306,-0.051801,0.000000,0.000000,0.000000,-1,-0.357590,0.283082,-1.282542,0.140390,0.070400,0.317106
"2018-06-06 23:15:12.695 +0000",1528326912.694596,1.518205,-0.314620,0.677630,0.949599,0.309455,-0.049987,0.000000,0.000000,0.000000,-1,-0.330402,0.008506,-1.232848,0.102983,0.040246,0.200774
"2018-06-06 23:15:12.705 +0000",1528326912.704668,1.517254,-0.326865,0.679213,0.945696,0.321075,-0.050684,0.000000,0.000000,0.000000,-1,-0.178121,-0.183289,-1.206863,0.055555,-0.000671,-0.050772
"2018-06-06 23:15:12.715 +0000",1528326912.714740,1.515261,-0.339476,0.680091,0.941475,0.332993,-0.052339,0.000000,0.000000,0.000000,-1,-0.152477,-0.232405,-1.257620,-0.004052,0.031662,-0.128599
"2018-06-06 23:15:12.725 +0000",1528326912.724813,1.513155,-0.352290,0.681326,0.937026,0.345048,-0.054071,0.000000,0.000000,0.000000,-1,-0.200762,-0.255588,-1.258653,-0.000259,0.046569,-0.136343
"2018-06-06 23:15:12.735 +0000",1528326912.734885,1.511101,-0.364514,0.682659,0.932633,0.356495,-0.055740,0.000000,0.000000,0.000000,-1,-0.178203,-0.243743,-1.188753,0.038193,0.045757,-0.156342
"2018-06-06 23:15:12.745 +0000",1528326912.744958,1.509196,-0.376494,0.682937,0.928195,0.367662,-0.057250,0.000000,0.000000,0.000000,-1,-0.076324,-0.169873,-1.197376,0.042325,0.010695,-0.133500
"2018-06-06 23:15:12.755 +0000",1528326912.755030,1.510124,-0.389619,0.683080,0.923351,0.379836,-0.056091,0.000000,0.000000,0.000000,-1,-0.110253,0.215949,-1.340313,-0.035915,0.027604,-0.025971
"2018-06-06 23:15:12.765 +0000",1528326912.765102,1.517183,-0.404225,0.683749,0.918086,0.393307,-0.049268,0.000000,0.000000,0.000000,-1,-0.150759,0.833353,-1.476107,-0.046962,0.121418,0.053236
"2018-06-06 23:15:12.775 +0000",1528326912.775175,1.530284,-0.419416,0.684965,0.912577,0.407227,-0.036991,0.000000,0.000000,0.000000,-1,-0.196288,1.386590,-1.496982,0.051931,0.087387,0.098056
"2018-06-06 23:15:12.785 +0000",1528326912.785247,1.549177,-0.434436,0.688004,0.906895,0.420899,-0.019609,0.000000,0.000000,0.000000,-1,-0.375373,1.842713,-1.484488,0.092663,-0.038376,0.185472
"2018-06-06 23:15:12.795 +0000",1528326912.795319,1.568601,-0.449734,0.692090,0.900560,0.434726,-0.001977,0.000000,0.000000,0.000000,-1,-0.350807,1.703515,-1.520446,0.098997,-0.052203,0.167840
"2018-06-06 23:15:12.805 +0000",1528326912.805392,1.584876,-0.464760,0.694326,0.893840,0.448209,0.012585,0.000000,0.000000,0.000000,-1,-0.161832,1.462360,-1.479630,0.118016,0.050006,-0.282574
"2018-06-06 23:15:12.815 +0000",1528326912.815464,1.599222,-0.479524,0.698364,0.886855,0.461357,0.025217,0.000000,0.000000,0.000000,-1,-0.399995,1.153208,-1.475681,-0.073989,-0.055153,-0.174158
"2018-06-06 23:15:12.826 +0000",1528326912.825536,1.610946,-0.494620,0.704564,0.879439,0.474697,0.035329,0.000000,0.000000,0.000000,-1,-0.493715,0.784341,-1.535705,-0.145461,-0.030498,-0.189137
"2018-06-06 23:15:12.836 +0000",1528326912.835609,1.621298,-0.510381,0.710909,0.871445,0.488510,0.044047,0.000000,0.000000,0.000000,-1,-0.482718,0.735216,-1.593958,-0.137086,0.120011,-0.174387
"2018-06-06 23:15:12.846 +0000",1528326912.845681,1.631814,-0.525793,0.716423,0.863316,0.501899,0.052743,0.000000,0.000000,0.000000,-1,-0.337164,0.768330,-1.540412,0.183254,0.002953,-0.008111
"2018-06-06 23:15:12.856 +0000",1528326912.855754,1.639914,-0.540751,0.719849,0.855275,0.514780,0.059209,0.000000,0.000000,0.000000,-1,-0.160873,0.575422,-1.495124,0.228832,0.043555,0.003947
"2018-06-06 23:15:12.866 +0000",1528326912.865826,1.644213,-0.555088,0.721436,0.847564,0.527018,0.062338,0.000000,0.000000,0.000000,-1,0.027697,0.250570,-1.391088,0.057832,0.095251,0.054163
"2018-06-06 23:15:12.876 +0000",1528326912.875898,1.640090,-0.566869,0.719481,0.841561,0.536994,0.058408,0.000000,0.000000,0.000000,-1,0.327324,-0.525016,-1.058429,0.075507,0.014108,-0.005293
"2018-06-06 23:15:12.886 +0000",1528326912.885971,1.622946,-0.574680,0.711900,0.838224,0.543566,0.043753,0.000000,0.000000,0.000000,-1,0.834422,-1.578176,-0.627018,0.094408,-0.143557,-0.188757
"2018-06-06 23:15:12.896 +0000",1528326912.896043,1.579491,-0.578502,0.688541,0.837250,0.546770,0.007280,0.000000,0.000000,0.000000,-1,2.456084,-3.678687,-0.223794,-0.039551,-0.626406,-1.007295
"2018-06-06 23:15:12.906 +0000",1528326912.906116,1.510898,-0.579912,0.651739,0.835010,0.547951,-0.050076,0.000000,0.000000,0.000000,-1,2.995112,-4.929708,-0.232970,-0.258655,-0.682442,-1.127170
"2018-06-06 23:15:12.916 +0000",1528326912.916188,1.457736,-0.579237,0.627336,0.831537,0.547386,-0.094417,0.000000,0.000000,0.000000,-1,1.654290,-3.503772,-0.057951,-0.279031,0.448845,1.071895
"2018-06-06 23:15:12.926 +0000",1528326912.926260,1.427984,-0.578996,0.617210,0.828491,0.547184,-0.119129,0.000000,0.000000,0.000000,-1,0.636712,-2.106684,-0.119322,0.219940,0.663678,1.475376
"2018-06-06 23:15:12.936 +0000",1528326912.936333,1.412106,-0.579984,0.613146,0.825961,0.548011,-0.132184,0.000000,0.000000,0.000000,-1,0.230450,-1.094501,-0.135885,0.548261,0.460931,0.796414
"2018-06-06 23:15:12.946 +0000",1528326912.946405,1.408910,-0.580087,0.613360,0.825478,0.548097,-0.134814,0.000000,0.000000,0.000000,-1,-0.082774,-0.082874,0.042030,0.548881,0.323226,0.348345
"2018-06-06 23:15:12.956 +0000",1528326912.956477,1.412474,-0.578674,0.614272,0.826717,0.546914,-0.131993,0.000000,0.000000,0.000000,-1,-0.018112,0.323967,0.188277,0.332539,0.180411,0.034260
"2018-06-06 23:15:12.967 +0000",1528326912.966550,1.412330,-0.574707,0.613894,0.828834,0.543589,-0.132453,0.000000,0.000000,0.000000,-1,0.132495,-0.134545,0.465191,0.025353,0.201849,-0.238015
"2018-06-06 23:15:12.977 +0000",1528326912.976622,1.405116,-0.567473,0.612125,0.831714,0.537502,-0.139074,0.000000,0.000000,0.000000,-1,0.307434,-0.771923,0.741528,-0.254138,0.262211,-0.244074
"2018-06-06 23:15:12.987 +0000",1528326912.986695,1.391973,-0.559118,0.607944,0.834204,0.530439,-0.150786,0.000000,0.000000,0.000000,-1,0.552515,-1.165353,0.744125,-0.315405,0.157412,-0.152238
"2018-06-06 23:15:12.997 +0000",1528326912.996767,1.375814,-0.551051,0.600520,0.835830,0.523583,-0.165069,0.000000,0.000000,0.000000,-1,0.837973,-1.211342,0.643302,-0.215728,0.094901,-0.020157
"2018-06-06 23:15:13.007 +0000",1528326913.006839,1.359428,-0.543420,0.590228,0.836896,0.517066,-0.179576,0.000000,0.000000,0.000000,-1,1.055981,-1.047860,0.546470,-0.118344,0.033669,0.137324
"2018-06-06 23:15:13.017 +0000",1528326913.016912,1.344202,-0.536090,0.577995,0.837735,0.510778,-0.193143,0.000000,0.000000,0.000000,-1,1.206671,-0.837390,0.456383,-0.074567,-0.013143,0.237455
"2018-06-06 23:15:13.027 +0000",1528326913.026984,1.330693,-0.529756,0.564455,0.838175,0.505323,-0.205208,0.000000,0.000000,0.000000,-1,1.288435,-0.592847,0.310620,-0.101801,-0.045820,0.245354
"2018-06-06 23:15:13.037 +0000",1528326913.037056,1.319326,-0.524322,0.549769,0.838435,0.500627,-0.215401,0.000000,0.000000,0.000000,-1,1.376376,-0.339567,0.179927,-0.154613,-0.081330,0.260338
"2018-06-06 23:15:13.047 +0000",1528326913.047129,1.308968,-0.520385,0.534208,0.838057,0.497214,-0.224582,0.000000,0.000000,0.000000,-1,1.390333,-0.226760,-0.010166,-0.154234,-0.077918,0.269520
"2018-06-06 23:15:13.057 +0000",1528326913.057201,1.300244,-0.518092,0.518622,0.837162,0.495224,-0.232189,0.000000,0.000000,0.000000,-1,1.339966,-0.058254,-0.174135,-0.153019,-0.019256,0.191799
"2018-06-06 23:15:13.067 +0000",1528326913.067274,1.292997,-0.516993,0.503559,0.835980,0.494269,-0.238399,0.000000,0.000000,0.000000,-1,1.259706,0.037414,-0.266178,-0.087246,-0.050192,0.154857
"2018-06-06 23:15:13.077 +0000",1528326913.077346,1.286009,-0.516814,0.489156,0.834379,0.494113,-0.244260,0.000000,0.000000,0.000000,-1,1.177454,-0.012943,-0.354339,-0.075727,-0.152392,0.068890
"2018-06-06 23:15:13.087 +0000",1528326913.087418,1.277525,-0.518434,0.475245,0.831509,0.495521,-0.251098,0.000000,0.000000,0.000000,-1,1.075169,-0.223182,-0.549408,-0.181485,-0.193351,-0.001939
"2018-06-06 23:15:13.097 +0000",1528326913.097491,1.266058,-0.522570,0.461605,0.826613,0.499109,-0.259999,0.000000,0.000000,0.000000,-1,0.982889,-0.551713,-0.801853,-0.251952,-0.240656,-0.015163
"2018-06-06 23:15:13.108 +0000",1528326913.107563,1.251375,-0.529419,0.447714,0.819442,0.505032,-0.271029,0.000000,0.000000,0.000000,-1,0.905521,-0.821877,-1.088584,-0.190688,-0.255551,-0.004789
"2018-06-06 23:15:13.118 +0000",1528326913.117635,1.234378,-0.540738,0.434503,0.809269,0.514769,-0.283011,0.000000,0.000000,0.000000,-1,0.622649,-1.077564,-1.560888,-0.152928,-0.183363,0.060034
"2018-06-06 23:15:13.128 +0000",1528326913.127708,1.215820,-0.554640,0.423707,0.797090,0.526637,-0.295464,0.000000,0.000000,0.000000,-1,0.347544,-1.355065,-1.537401,-0.095979,0.039037,0.201760
"2018-06-06 23:15:13.138 +0000",1528326913.137780,1.196406,-0.565402,0.415033,0.785883,0.535756,-0.308791,0.000000,0.000000,0.000000,-1,0.286307,-1.486159,-1.206343,0.136907,0.278575,0.055205
"2018-06-06 23:15:13.148 +0000",1528326913.147853,1.180421,-0.577110,0.407506,0.774993,0.545604,-0.318905,0.000000,0.000000,0.000000,-1,0.086535,-1.004084,-1.375511,-0.032150,0.197530,0.042995
"2018-06-06 23:15:13.158 +0000",1528326913.157925,1.174540,-0.592903,0.402032,0.765059,0.558771,-0.320091,0.000000,0.000000,0.000000,-1,-0.281568,-0.104687,-1.696896,-0.038176,0.086081,0.183113
"2018-06-06 23:15:13.168 +0000",1528326913.167997,1.175001,-0.611997,0.399671,0.755223,0.574503,-0.315567,0.000000,0.000000,0.000000,-1,-0.647099,0.268297,-1.877834,0.073131,0.020712,0.203781
"2018-06-06 23:15:13.178 +0000",1528326913.178070,1.181492,-0.637914,0.401523,0.743227,0.595521,-0.304903,0.000000,0.000000,0.000000,-1,-1.289100,0.615745,-2.435764,-0.199740,-0.096589,0.261995
"2018-06-06 23:15:13.188 +0000",1528326913.188142,1.188774,-0.663352,0.405240,0.731132,0.615761,-0.293739,0.000000,0.000000,0.000000,-1,-1.097180,0.411781,-2.099045,-0.036567,0.094719,-0.009270
"2018-06-06 23:15:13.198 +0000",1528326913.198214,1.189323,-0.679541,0.403916,0.721945,0.628436,-0.289588,0.000000,0.000000,0.000000,-1,-0.329687,0.062712,-1.332731,0.373300,0.383344,-0.638360
"2018-06-06 23:15:13.208 +0000",1528326913.208287,1.189085,-0.688520,0.402934,0.716611,0.635395,-0.287646,0.000000,0.000000,0.000000,-1,-0.312260,0.059135,-0.729345,0.412311,0.275463,-0.249753
"2018-06-06 23:15:13.218 +0000",1528326913.218359,1.192770,-0.695071,0.406393,0.713781,0.640440,-0.283461,0.000000,0.000000,0.000000,-1,-0.527684,0.166069,-0.455327,0.243647,0.120897,0.149230
"2018-06-06 23:15:13.228 +0000",1528326913.228432,1.197302,-0.700514,0.411652,0.711803,0.644611,-0.278947,0.000000,0.000000,0.000000,-1,-0.574803,0.092954,-0.328505,0.078374,0.183194,-0.050597
"2018-06-06 23:15:13.239 +0000",1528326913.238504,1.200925,-0.705056,0.417317,0.710072,0.648076,-0.275305,0.000000,0.000000,0.000000,-1,-0.561661,-0.034697,-0.246082,-0.015995,0.328211,-0.077142
"2018-06-06 23:15:13.249 +0000",1528326913.248576,1.204328,-0.708787,0.423592,0.708742,0.650914,-0.272019,0.000000,0.000000,0.000000,-1,-0.579181,-0.064790,-0.149321,-0.003084,0.276027,-0.018630
"2018-06-06 23:15:13.259 +0000",1528326913.258649,1.208883,-0.711522,0.429937,0.708306,0.652987,-0.268157,0.000000,0.000000,0.000000,-1,-0.525410,0.101845,-0.059681,0.069770,0.150998,0.004393
"2018-06-06 23:15:13.269 +0000",1528326913.268721,1.216826,-0.712231,0.436608,0.709979,0.653524,-0.262361,0.000000,0.000000,0.000000,-1,-0.487676,0.441246,0.182164,0.163739,0.027170,0.067598
"2018-06-06 23:15:13.279 +0000",1528326913.278793,1.229801,-0.709711,0.445148,0.714874,0.651614,-0.253678,0.000000,0.000000,0.000000,-1,-0.542303,0.829280,0.545910,0.203721,-0.067310,0.105622
"2018-06-06 23:15:13.289 +0000",1528326913.288866,1.246975,-0.705032,0.456243,0.722007,0.648058,-0.242332,0.000000,0.000000,0.000000,-1,-0.670082,1.017989,0.748973,0.147027,-0.052828,0.149024
"2018-06-06 23:15:13.299 +0000",1528326913.298938,1.264667,-0.700175,0.467952,0.729174,0.644351,-0.230466,0.000000,0.000000,0.000000,-1,-0.685514,1.008237,0.708106,-0.075213,0.015622,0.007505
"2018-06-06 23:15:13.309 +0000",1528326913.309011,1.277011,-0.697897,0.476796,0.733366,0.642608,-0.221873,0.000000,0.000000,0.000000,-1,-0.517352,0.341069,0.229269,-0.174238,-0.023040,-0.077825
"2018-06-06 23:15:13.319 +0000",1528326913.319083,1.275551,-0.700686,0.478909,0.731324,0.644742,-0.222420,0.000000,0.000000,0.000000,-1,-0.173419,-0.401196,-0.287836,-0.231614,-0.164151,-0.100761
"2018-06-06 23:15:13.329 +0000",1528326913.329155,1.272624,-0.703452,0.481970,0.728962,0.646854,-0.224036,0.000000,0.000000,0.000000,-1,-0.385557,-0.459457,-0.147686,0.050381,-0.049168,0.021765
"2018-06-06 23:15:13.339 +0000",1528326913.339228,1.274479,-0.705750,0.490574,0.727953,0.648605,-0.222248,0.000000,0.000000,0.000000,-1,-0.783804,-0.359084,-0.001270,0.043974,0.008561,0.070637
"2018-06-06 23:15:13.349 +0000",1528326913.349300,1.278841,-0.708900,0.502989,0.726955,0.650999,-0.218481,0.000000,0.000000,0.000000,-1,-1.041764,-0.365062,-0.055554,-0.080272,0.039766,-0.016489
"2018-06-06 23:15:13.359 +0000",1528326913.359372,1.285250,-0.714076,0.516985,0.725097,0.654919,-0.212866,0.000000,0.000000,0.000000,-1,-1.187557,-0.220902,-0.236585,-0.098144,0.032581,0.004919
"2018-06-06 23:15:13.369 +0000",1528326913.369445,1.294054,-0.721014,0.531483,0.722555,0.660147,-0.205228,0.000000,0.000000,0.000000,-1,-1.243170,-0.050210,-0.401611,0.021647,0.042673,0.053037
"2018-06-06 23:15:13.380 +0000",1528326913.379517,1.302601,-0.729196,0.546840,0.719050,0.666271,-0.197606,0.000000,0.000000,0.000000,-1,-1.353693,-0.208236,-0.487869,0.103781,0.012196,-0.006648
"2018-06-06 23:15:13.390 +0000",1528326913.389590,1.311662,-0.738027,0.564657,0.715095,0.672830,-0.189568,0.000000,0.000000,0.000000,-1,-1.548818,-0.285533,-0.509160,0.065972,-0.036813,-0.000236
"2018-06-06 23:15:13.400 +0000",1528326913.399662,1.324170,-0.747478,0.585119,0.711212,0.679791,-0.179048,0.000000,0.000000,0.000000,-1,-1.726276,-0.049857,-0.544640,0.012726,-0.069577,0.092958
"2018-06-06 23:15:13.410 +0000",1528326913.409734,1.341778,-0.757383,0.607566,0.707661,0.687023,-0.164962,0.000000,0.000000,0.000000,-1,-1.835573,0.301274,-0.579940,0.051418,-0.118144,0.135466
"2018-06-06 23:15:13.420 +0000",1528326913.419807,1.363223,-0.767308,0.631429,0.704329,0.694200,-0.148337,0.000000,0.000000,0.000000,-1,-1.905050,0.544828,-0.589829,0.083086,-0.104356,0.070578
"2018-06-06 23:15:13.430 +0000",1528326913.429879,1.387870,-0.776829,0.656675,0.701240,0.701021,-0.129726,0.000000,0.000000,0.000000,-1,-1.943188,0.760917,-0.574054,0.021951,-0.043230,0.042995
"2018-06-06 23:15:13.440 +0000",1528326913.439952,1.413901,-0.785403,0.681092,0.698416,0.707110,-0.110487,0.000000,0.000000,0.000000,-1,-1.791360,0.899473,-0.529897,-0.033270,0.025480,-0.008746
"2018-06-06 23:15:13.450 +0000",1528326913.450024,1.437980,-0.791935,0.702860,0.696280,0.711714,-0.093025,0.000000,0.000000,0.000000,-1,-1.530963,0.832578,-0.373644,-0.040610,0.035448,-0.084923
"2018-06-06 23:15:13.460 +0000",1528326913.460096,1.458700,-0.795738,0.721631,0.695363,0.714380,-0.078276,0.000000,0.000000,0.000000,-1,-1.287661,0.689693,-0.170244,-0.031011,0.016562,-0.066942
"2018-06-06 23:15:13.470 +0000",1528326913.470169,1.475591,-0.798399,0.737941,0.694691,0.716240,-0.066339,0.000000,0.000000,0.000000,-1,-1.110058,0.466178,-0.155166,-0.029973,0.092201,-0.009268
"2018-06-06 23:15:13.480 +0000",1528326913.480241,1.489131,-0.801314,0.751629,0.693442,0.718271,-0.056756,0.000000,0.000000,0.000000,-1,-0.920324,0.328682,-0.225918,0.024515,0.102972,0.035241
"2018-06-06 23:15:13.490 +0000",1528326913.490313,1.499164,-0.805216,0.762427,0.691176,0.720980,-0.049595,0.000000,0.000000,0.000000,-1,-0.723785,0.200267,-0.363348,-0.030821,0.054197,0.029576
"2018-06-06 23:15:13.500 +0000",1528326913.500386,1.506946,-0.809525,0.770554,0.688434,0.723959,-0.044016,0.000000,0.000000,0.000000,-1,-0.538775,0.193175,-0.382078,-0.016483,0.007135,0.070429
"2018-06-06 23:15:13.510 +0000",1528326913.510458,1.512669,-0.812779,0.776037,0.686319,0.726200,-0.039939,0.000000,0.000000,0.000000,-1,-0.345306,0.162500,-0.268592,0.041723,-0.101597,0.071768
"2018-06-06 23:15:13.521 +0000",1528326913.520531,1.515718,-0.815066,0.778844,0.684778,0.727771,-0.037755,0.000000,0.000000,0.000000,-1,-0.159770,0.073847,-0.209039,0.041251,-0.083865,0.037083
"2018-06-06 23:15:13.531 +0000",1528326913.530603,1.516052,-0.817356,0.779788,0.683124,0.729339,-0.037434,0.000000,0.000000,0.000000,-1,-0.055480,-0.069578,-0.231208,0.020809,-0.014694,0.024617
"2018-06-06 23:15:13.541 +0000",1528326913.540675,1.515054,-0.819825,0.779909,0.681286,0.731026,-0.038016,0.000000,0.000000,0.000000,-1,-0.012291,-0.104537,-0.243241,-0.014172,-0.008309,0.037405
"2018-06-06 23:15:13.551 +0000",1528326913.550748,1.514408,-0.821745,0.779310,0.679860,0.732335,-0.038377,0.000000,0.000000,0.000000,-1,0.049005,0.011690,-0.169899,-0.014546,-0.042729,0.074037
"2018-06-06 23:15:13.561 +0000",1528326913.560820,1.513654,-0.822536,0.777064,0.679251,0.732874,-0.038857,0.000000,0.000000,0.000000,-1,0.185670,0.103824,-0.060228,0.018472,-0.048822,0.081520
"2018-06-06 23:15:13.571 +0000",1528326913.570892,1.511264,-0.822473,0.772391,0.679203,0.732831,-0.040482,0.000000,0.000000,0.000000,-1,0.361702,0.093098,-0.003653,0.030148,-0.036404,0.062317
"2018-06-06 23:15:13.581 +0000",1528326913.580965,1.505950,-0.822162,0.765060,0.679206,0.732619,-0.044106,0.000000,0.000000,0.000000,-1,0.542446,-0.027169,-0.000115,0.036813,-0.053572,0.038262
"2018-06-06 23:15:13.591 +0000",1528326913.591037,1.497731,-0.821795,0.755493,0.679088,0.732369,-0.049706,0.000000,0.000000,0.000000,-1,0.674952,-0.150823,-0.006156,0.011555,-0.074547,0.031258
"2018-06-06 23:15:13.601 +0000",1528326913.601110,1.487291,-0.820897,0.744856,0.679187,0.731757,-0.056848,0.000000,0.000000,0.000000,-1,0.734513,-0.308987,0.053484,-0.026035,-0.056235,0.050378
"2018-06-06 23:15:13.611 +0000",1528326913.611182,1.475043,-0.818756,0.734900,0.679998,0.730297,-0.065312,0.000000,0.000000,0.000000,-1,0.650796,-0.551258,0.179897,-0.031637,-0.083538,0.014287
"2018-06-06 23:15:13.621 +0000",1528326913.621253,1.463570,-0.819074,0.727235,0.678973,0.730514,-0.073084,0.000000,0.000000,0.000000,-1,0.464769,-0.574284,-0.212355,0.006986,-0.348769,0.020258
"2018-06-06 23:15:13.631 +0000",1528326913.631327,1.456754,-0.824622,0.722574,0.674422,0.734291,-0.077248,0.000000,0.000000,0.000000,-1,0.175082,-0.225085,-0.692564,0.065813,-0.372444,0.145699
"2018-06-06 23:15:13.641 +0000",1528326913.641399,1.457892,-0.834035,0.721997,0.667612,0.740648,-0.075698,0.000000,0.000000,0.000000,-1,-0.150756,0.271477,-0.996933,0.066855,0.075025,0.274749
"2018-06-06 23:15:13.651 +0000",1528326913.651471,1.464913,-0.844167,0.725520,0.660630,0.747418,-0.070212,0.000000,0.000000,0.000000,-1,-0.384721,0.452719,-0.916272,0.162002,0.270496,0.145514
"2018-06-06 23:15:13.662 +0000",1528326913.661544,1.470210,-0.847763,0.727112,0.658314,0.749802,-0.066441,0.000000,0.000000,0.000000,-1,-0.002162,0.375787,-0.117092,0.234951,0.145721,-0.151302
"2018-06-06 23:15:13.672 +0000",1528326913.671616,1.468489,-0.843388,0.722437,0.661456,0.746900,-0.067909,0.000000,0.000000,0.000000,-1,0.424871,0.082276,0.525388,0.217344,-0.066709,-0.295403
"2018-06-06 23:15:13.682 +0000",1528326913.681689,1.463011,-0.837353,0.717068,0.665543,0.742874,-0.072015,0.000000,0.000000,0.000000,-1,0.386288,-0.172493,0.520432,0.117095,-0.136917,-0.147452
"2018-06-06 23:15:13.692 +0000",1528326913.691761,1.462127,-0.834858,0.712988,0.667320,0.741201,-0.072804,0.000000,0.000000,0.000000,-1,0.274523,0.392129,0.096375,-0.043541,-0.064489,0.160588
"2018-06-06 23:15:13.702 +0000",1528326913.701833,1.467539,-0.837672,0.708753,0.665627,0.743087,-0.068976,0.000000,0.000000,0.000000,-1,0.255035,0.959695,-0.445130,-0.126121,0.087677,0.298804
"2018-06-06 23:15:13.712 +0000",1528326913.711905,1.472314,-0.844384,0.703762,0.660970,0.747562,-0.065305,0.000000,0.000000,0.000000,-1,0.264812,0.751262,-0.735107,-0.082982,0.254360,0.118039
"2018-06-06 23:15:13.722 +0000",1528326913.721978,1.472744,-0.849834,0.698541,0.656934,0.751171,-0.064621,0.000000,0.000000,0.000000,-1,0.293746,0.324354,-0.483638,-0.037412,0.145649,-0.035598
"2018-06-06 23:15:13.732 +0000",1528326913.732049,1.471136,-0.850752,0.693856,0.656143,0.751776,-0.065609,0.000000,0.000000,0.000000,-1,0.294334,0.191682,0.003242,-0.147384,0.022683,-0.068607
"2018-06-06 23:15:13.742 +0000",1528326913.742123,1.471773,-0.847642,0.690605,0.658508,0.749722,-0.065421,0.000000,0.000000,0.000000,-1,0.213797,0.330511,0.352339,-0.256133,-0.002667,-0.010934
"2018-06-06 23:15:13.752 +0000",1528326913.752195,1.472761,-0.843747,0.688965,0.661473,0.747139,-0.065057,0.000000,0.000000,0.000000,-1,0.130889,0.164469,0.363878,-0.233418,0.011086,0.008919
"2018-06-06 23:15:13.762 +0000",1528326913.762268,1.471535,-0.840447,0.687752,0.663843,0.744941,-0.066111,0.000000,0.000000,0.000000,-1,0.105305,-0.096640,0.308319,-0.125009,0.032967,-0.041783
"2018-06-06 23:15:13.772 +0000",1528326913.772340,1.468434,-0.836625,0.686352,0.666462,0.742386,-0.068460,0.000000,0.000000,0.000000,-1,0.145815,-0.234066,0.384197,-0.045094,-0.030426,-0.040030
"2018-06-06 23:15:13.782 +0000",1528326913.782412,1.462692,-0.834621,0.683922,0.667536,0.741042,-0.072446,0.000000,0.000000,0.000000,-1,0.186215,-0.465390,0.075797,-0.053720,-0.218306,-0.042285
"2018-06-06 23:15:13.792 +0000",1528326913.792485,1.453962,-0.837783,0.682315,0.664547,0.743161,-0.077997,0.000000,0.000000,0.000000,-1,0.008941,-0.832506,-0.456233,-0.079235,-0.263288,-0.028021
"2018-06-06 23:15:13.803 +0000",1528326913.802557,1.446042,-0.846467,0.684562,0.657480,0.748944,-0.082452,0.000000,0.000000,0.000000,-1,-0.345196,-0.971880,-0.963532,-0.043604,-0.271603,0.114846
"2018-06-06 23:15:13.813 +0000",1528326913.812629,1.441732,-0.859165,0.690655,0.647635,0.757297,-0.084054,0.000000,0.000000,0.000000,-1,-0.604789,-0.822170,-1.234640,0.030923,-0.290378,0.147576
"2018-06-06 23:15:13.823 +0000",1528326913.822701,1.442159,-0.867678,0.699401,0.641254,0.762829,-0.082947,0.000000,0.000000,0.000000,-1,-0.675584,-0.543189,-0.530195,0.244595,-0.334393,0.030411
"2018-06-06 23:15:13.833 +0000",1528326913.832774,1.445736,-0.869051,0.709106,0.640506,0.763717,-0.080522,0.000000,0.000000,0.000000,-1,-0.620159,-0.337875,0.023156,0.285031,-0.165374,-0.071090
"2018-06-06 23:15:13.843 +0000",1528326913.842847,1.451192,-0.869624,0.718908,0.640502,0.764086,-0.076974,0.000000,0.000000,0.000000,-1,-0.648554,-0.147961,0.004412,0.038102,0.175397,0.038537
"2018-06-06 23:15:13.853 +0000",1528326913.852919,1.459877,-0.871306,0.730429,0.639868,0.765170,-0.071267,0.000000,0.000000,0.000000,-1,-0.777033,0.034395,-0.110933,-0.105200,0.319913,0.203240
"2018-06-06 23:15:13.863 +0000",1528326913.862991,1.469971,-0.873948,0.742162,0.638541,0.766869,-0.064600,0.000000,0.000000,0.000000,-1,-0.755431,0.119352,-0.198938,-0.132483,0.197716,0.179850
"2018-06-06 23:15:13.873 +0000",1528326913.873064,1.477836,-0.877859,0.753060,0.636038,0.769373,-0.059297,0.000000,0.000000,0.000000,-1,-0.700657,-0.058867,-0.334038,-0.151709,0.016012,0.084276
"2018-06-06 23:15:13.883 +0000",1528326913.883136,1.484332,-0.880751,0.760128,0.634190,0.771217,-0.054972,0.000000,0.000000,0.000000,-1,-0.386575,0.144644,-0.226600,-0.072880,0.161064,-0.022436
"2018-06-06 23:15:13.893 +0000",1528326913.893209,1.487861,-0.884037,0.762872,0.631851,0.773305,-0.052523,0.000000,0.000000,0.000000,-1,-0.159754,0.123853,-0.354107,0.054901,0.162684,-0.142194
"2018-06-06 23:15:13.903 +0000",1528326913.903281,1.489234,-0.889649,0.764679,0.627588,0.776851,-0.051301,0.000000,0.000000,0.000000,-1,-0.175440,-0.060626,-0.613838,0.075980,0.049993,-0.083403
"2018-06-06 23:15:13.913 +0000",1528326913.913352,1.489348,-0.897373,0.767796,0.621594,0.781691,-0.050740,0.000000,0.000000,0.000000,-1,-0.286333,-0.273198,-0.782003,0.071094,0.044374,-0.053096
"2018-06-06 23:15:13.923 +0000",1528326913.923426,1.489212,-0.905955,0.772265,0.614878,0.787015,-0.050276,0.000000,0.000000,0.000000,-1,-0.349899,-0.377441,-0.834867,0.074468,0.034579,-0.013124
"2018-06-06 23:15:13.933 +0000",1528326913.933498,1.488630,-0.914878,0.775863,0.607826,0.792488,-0.050056,0.000000,0.000000,0.000000,-1,-0.260411,-0.310080,-0.870372,0.039223,0.056816,0.043098
"2018-06-06 23:15:13.944 +0000",1528326913.943570,1.487584,-0.923684,0.777987,0.600796,0.797828,-0.050109,0.000000,0.000000,0.000000,-1,-0.187063,-0.272628,-0.852145,0.004429,-0.028495,0.100219
"2018-06-06 23:15:13.954 +0000",1528326913.953643,1.485151,-0.932693,0.779910,0.593486,0.803227,-0.050954,0.000000,0.000000,0.000000,-1,-0.194936,-0.427227,-0.902057,-0.047786,-0.078129,0.069509
"2018-06-06 23:15:13.964 +0000",1528326913.963715,1.483090,-0.941665,0.782984,0.586177,0.808539,-0.051543,0.000000,0.000000,0.000000,-1,-0.281508,-0.447480,-0.841681,-0.068126,0.039224,0.020003
"2018-06-06 23:15:13.974 +0000",1528326913.973788,1.482936,-0.949290,0.788204,0.580011,0.813002,-0.051091,0.000000,0.000000,0.000000,-1,-0.397196,-0.437474,-0.686494,-0.064202,-0.151183,0.022252
"2018-06-06 23:15:13.984 +0000",1528326913.983860,1.484534,-0.955732,0.795245,0.574862,0.816736,-0.049712,0.000000,0.000000,0.000000,-1,-0.472497,-0.395245,-0.596920,-0.108233,-0.189112,-0.007020
"2018-06-06 23:15:13.994 +0000",1528326913.993932,1.487452,-0.962463,0.802340,0.569513,0.820601,-0.047576,0.000000,0.000000,0.000000,-1,-0.451269,-0.248986,-0.643872,-0.113413,-0.022750,0.047835
"2018-06-06 23:15:14.004 +0000",1528326914.004004,1.491300,-0.969447,0.809030,0.563965,0.824573,-0.044928,0.000000,0.000000,0.000000,-1,-0.423944,-0.145657,-0.658693,-0.046875,0.032269,0.081290
"2018-06-06 23:15:14.014 +0000",1528326914.014077,1.506605,-0.966406,0.824858,0.567086,0.822849,-0.036452,0.000000,0.000000,0.000000,-1,-0.333658,-0.202543,-0.646158,-0.006692,0.063550,0.009246
"2018-06-06 23:15:14.024 +0000",1528326914.024148,1.531605,-0.963703,0.849390,0.570041,0.821310,-0.022352,0.000000,0.000000,0.000000,-1,-0.314191,-0.312017,-0.705681,-0.015979,0.102701,-0.080538
"2018-06-06 23:15:14.034 +0000",1528326914.034222,1.542093,-0.965534,0.863209,0.568740,0.822353,-0.016329,0.000000,0.000000,0.000000,-1,-0.350737,-0.449293,-0.716753,-0.036803,0.018025,-0.069211
"2018-06-06 23:15:14.044 +0000",1528326914.044294,1.538052,-0.978967,0.866451,0.557577,0.829922,-0.018264,0.000000,0.000000,0.000000,-1,-0.341025,-0.622663,-0.729112,-0.035070,0.005009,-0.078782
"2018-06-06 23:15:14.054 +0000",1528326914.054367,1.533145,-0.978592,0.868694,0.557792,0.829712,-0.021012,0.000000,0.000000,0.000000,-1,-0.224113,-0.571111,-0.641027,-0.029319,0.032516,-0.028427
"2018-06-06 23:15:14.064 +0000",1528326914.064439,1.522602,-0.980264,0.863398,0.556153,0.830644,-0.026824,0.000000,0.000000,0.000000,-1,-0.016699,-0.321513,-0.599901,-0.036347,0.014159,0.067931
"2018-06-06 23:15:14.075 +0000",1528326914.074511,1.522502,-0.991900,0.863688,0.546459,0.837067,-0.026411,0.000000,0.000000,0.000000,-1,0.160971,-0.094672,-0.649128,-0.040096,0.100281,0.071623
"2018-06-06 23:15:14.085 +0000",1528326914.084584,1.525795,-1.001522,0.865029,0.538471,0.842292,-0.024249,0.000000,0.000000,0.000000,-1,0.317113,-0.005992,-0.750338,-0.030094,0.133995,0.014147
"2018-06-06 23:15:14.095 +0000",1528326914.094656,1.519404,-1.010614,0.858154,0.530636,0.847158,-0.027295,0.000000,0.000000,0.000000,-1,0.312496,-0.108330,-0.957149,-0.027157,0.144923,-0.025867
"2018-06-06 23:15:14.105 +0000",1528326914.104729,1.512114,-1.020204,0.852637,0.522287,0.852215,-0.030684,0.000000,0.000000,0.000000,-1,0.201284,-0.279913,-0.952015,0.007712,0.095722,-0.103059
"2018-06-06 23:15:14.115 +0000",1528326914.114800,1.500701,-1.027835,0.844743,0.515402,0.856182,-0.036186,0.000000,0.000000,0.000000,-1,0.023409,-0.286100,-0.903222,-0.028310,0.001697,-0.074455
"2018-06-06 23:15:14.125 +0000",1528326914.124873,1.490774,-1.035397,0.837558,0.508548,0.860065,-0.040782,0.000000,0.000000,0.000000,-1,-0.007118,-0.157716,-0.910308,-0.030338,0.009915,-0.020833
"2018-06-06 23:15:14.135 +0000",1528326914.134946,1.486573,-1.042718,0.834274,0.502085,0.863777,-0.042387,0.000000,0.000000,0.000000,-1,0.088819,-0.096321,-0.827524,0.012792,-0.038948,0.004042
"2018-06-06 23:15:14.145 +0000",1528326914.145018,1.492879,-1.049137,0.838404,0.496804,0.866994,-0.038788,0.000000,0.000000,0.000000,-1,0.152155,0.091270,-0.755056,-0.010415,-0.034367,0.053406
"2018-06-06 23:15:14.155 +0000",1528326914.155090,1.500240,-1.057392,0.842124,0.489920,0.871078,-0.034625,0.000000,0.000000,0.000000,-1,0.109234,0.225752,-0.653455,-0.034994,-0.039321,0.087267
"2018-06-06 23:15:14.165 +0000",1528326914.165163,1.503627,-1.064801,0.843247,0.483582,0.874692,-0.032531,0.000000,0.000000,0.000000,-1,-0.023705,0.148173,-0.566249,-0.049500,-0.074827,0.003722
"2018-06-06 23:15:14.175 +0000",1528326914.175235,1.503019,-1.071691,0.843035,0.477538,0.878011,-0.032416,0.000000,0.000000,0.000000,-1,-0.119579,-0.062037,-0.502103,-0.077742,-0.090292,-0.075662
"2018-06-06 23:15:14.185 +0000",1528326914.185308,1.493704,-1.075440,0.837228,0.473930,0.879799,-0.036609,0.000000,0.000000,0.000000,-1,-0.157517,-0.247830,-0.462757,-0.098747,-0.092110,-0.082074
"2018-06-06 23:15:14.195 +0000",1528326914.195380,1.483659,-1.078588,0.832112,0.470777,0.881291,-0.041126,0.000000,0.000000,0.000000,-1,-0.092387,-0.417886,-0.442964,-0.103834,-0.036534,-0.026379
"2018-06-06 23:15:14.205 +0000",1528326914.205451,1.475831,-1.081682,0.829158,0.467725,0.882749,-0.044552,0.000000,0.000000,0.000000,-1,0.061517,-0.483629,-0.370364,-0.009839,0.011935,0.027584
"2018-06-06 23:15:14.216 +0000",1528326914.215525,1.469698,-1.081811,0.827676,0.467329,0.882810,-0.047408,0.000000,0.000000,0.000000,-1,0.080569,-0.514250,-0.385556,0.000170,0.064852,0.071273
"2018-06-06 23:15:14.226 +0000",1528326914.225597,1.471900,-1.083478,0.833539,0.465968,0.883592,-0.046233,0.000000,0.000000,0.000000,-1,-0.060671,-0.414964,-0.333312,0.022451,0.021804,0.087005
"2018-06-06 23:15:14.236 +0000",1528326914.235669,1.481570,-1.085950,0.846541,0.464216,0.884746,-0.041531,0.000000,0.000000,0.000000,-1,-0.210276,-0.465055,-0.267501,0.058276,-0.019939,0.075069
"2018-06-06 23:15:14.246 +0000",1528326914.245742,1.481831,-1.088157,0.853777,0.462280,0.885773,-0.041236,0.000000,0.000000,0.000000,-1,-0.351001,-0.676316,-0.244129,-0.007873,-0.074875,-0.082712
"2018-06-06 23:15:14.256 +0000",1528326914.255814,1.477922,-1.090177,0.858577,0.460333,0.886709,-0.042876,0.000000,0.000000,0.000000,-1,-0.545275,-0.657639,-0.114553,-0.041357,-0.180501,-0.003175
"2018-06-06 23:15:14.266 +0000",1528326914.265887,1.480316,-1.092087,0.869555,0.458747,0.887590,-0.041621,0.000000,0.000000,0.000000,-1,-0.776886,-0.601463,-0.051471,-0.084983,-0.228410,0.117366
"2018-06-06 23:15:14.276 +0000",1528326914.275959,1.493133,-1.093281,0.890559,0.458185,0.888140,-0.035656,0.000000,0.000000,0.000000,-1,-1.024909,-0.576969,-0.035773,-0.107263,-0.199144,0.218166
"2018-06-06 23:15:14.286 +0000",1528326914.286031,1.510717,-1.094402,0.916375,0.457748,0.888654,-0.027534,0.000000,0.000000,0.000000,-1,-1.230875,-0.528172,-0.028706,-0.142043,-0.173291,0.248634
"2018-06-06 23:15:14.296 +0000",1528326914.296103,1.532318,-1.096402,0.947788,0.456459,0.889569,-0.017573,0.000000,0.000000,0.000000,-1,-1.523701,-0.683160,-0.174774,-0.186256,-0.156217,0.218210
"2018-06-06 23:15:14.306 +0000",1528326914.306176,1.561484,-1.104402,0.993167,0.449646,0.893195,-0.004187,0.000000,0.000000,0.000000,-1,-2.294518,-1.307275,-1.071912,-0.371170,-0.356910,0.251761
"2018-06-06 23:15:14.316 +0000",1528326914.316247,1.599064,-1.137931,1.060860,0.419302,0.907768,0.011856,0.000000,0.000000,0.000000,-1,-2.736716,-3.104388,-3.447924,-1.918386,-1.027885,0.339356
"2018-06-06 23:15:14.326 +0000",1528326914.326321,1.624697,-1.155392,1.127982,0.402969,0.914953,0.021742,0.000000,0.000000,0.000000,-1,-2.613490,-3.719266,-1.500926,-0.318847,1.815454,-0.634168
"2018-06-06 23:15:14.336 +0000",1528326914.336393,1.623622,-1.164887,1.162594,0.394299,0.918744,0.020848,0.000000,0.000000,0.000000,-1,-1.025625,-2.771079,-0.902670,1.163715,-0.619672,-0.794500
"2018-06-06 23:15:14.346 +0000",1528326914.346466,1.621254,-1.169614,1.183304,0.390005,0.920600,0.019696,0.000000,0.000000,0.000000,-1,-0.678397,-2.125721,-0.378824,0.373148,0.399011,0.060794
"2018-06-06 23:15:14.357 +0000",1528326914.356538,1.614511,-1.171855,1.199165,0.388066,0.921473,0.016975,0.000000,0.000000,0.000000,-1,-0.613419,-2.018553,-0.236676,0.355235,0.144003,0.133248
"2018-06-06 23:15:14.367 +0000",1528326914.366610,1.618600,-1.172387,1.217627,0.387504,0.921679,0.018538,0.000000,0.000000,0.000000,-1,-0.733622,-1.071322,-0.019592,0.339425,0.128888,0.566530
"2018-06-06 23:15:14.377 +0000",1528326914.376683,1.622881,-1.170480,1.232543,0.389176,0.920938,0.020289,0.000000,0.000000,0.000000,-1,-0.488676,-0.939868,0.209342,0.339218,0.250708,0.212042
"2018-06-06 23:15:14.387 +0000",1528326914.386755,1.617433,-1.167689,1.235910,0.391847,0.919846,0.018288,0.000000,0.000000,0.000000,-1,-0.043878,-0.822504,0.265674,0.077499,0.335738,-0.311577
"2018-06-06 23:15:14.397 +0000",1528326914.396827,1.608152,-1.166347,1.234480,0.393232,0.919319,0.014696,0.000000,0.000000,0.000000,-1,0.049851,-0.780895,0.091326,-0.125883,0.398720,-0.246248
"2018-06-06 23:15:14.407 +0000",1528326914.406899,1.600755,-1.165839,1.234310,0.393798,0.919119,0.011801,0.000000,0.000000,0.000000,-1,-0.006643,-0.688670,0.050849,0.025636,0.271814,-0.066260
"2018-06-06 23:15:14.417 +0000",1528326914.416972,1.594759,-1.164635,1.233759,0.394967,0.918644,0.009466,0.000000,0.000000,0.000000,-1,0.033377,-0.491372,0.149215,0.156440,0.057537,-0.063650
"2018-06-06 23:15:14.427 +0000",1528326914.427045,1.589913,-1.161701,1.231878,0.397701,0.917481,0.007604,0.000000,0.000000,0.000000,-1,0.075735,-0.247283,0.347746,0.118107,-0.026856,-0.050603
"2018-06-06 23:15:14.437 +0000",1528326914.437117,1.585230,-1.157369,1.228458,0.401703,0.915749,0.005799,0.000000,0.000000,0.000000,-1,0.149500,-0.135488,0.439333,-0.018509,-0.071389,-0.007965
"2018-06-06 23:15:14.447 +0000",1528326914.447189,1.578835,-1.153549,1.223427,0.405227,0.914208,0.003258,0.000000,0.000000,0.000000,-1,0.211165,-0.205204,0.350786,-0.177536,0.001319,0.038963
"2018-06-06 23:15:14.457 +0000",1528326914.457262,1.570814,-1.150743,1.218214,0.407804,0.913067,0.000007,0.000000,0.000000,0.000000,-1,0.204682,-0.368400,0.257820,-0.163145,0.054798,0.094292
"2018-06-06 23:15:14.467 +0000",1528326914.467334,1.562557,-1.148068,1.213280,0.410232,0.911973,-0.003380,0.000000,0.000000,0.000000,-1,0.209633,-0.348780,0.294438,-0.017501,0.148940,0.064843
"2018-06-06 23:15:14.477 +0000",1528326914.477406,1.555000,-1.142738,1.206281,0.415049,0.909773,-0.006557,0.000000,0.000000,0.000000,-1,0.330832,-0.016043,0.610292,0.097966,0.042436,-0.001301
"2018-06-06 23:15:14.487 +0000",1528326914.487479,1.549407,-1.134832,1.195597,0.422184,0.906463,-0.009032,0.000000,0.000000,0.000000,-1,0.483296,0.551166,0.792301,-0.002491,0.089631,-0.004915
"2018-06-06 23:15:14.498 +0000",1528326914.497550,1.546951,-1.126855,1.183972,0.429376,0.903066,-0.010241,0.000000,0.000000,0.000000,-1,0.510295,0.845427,0.796323,-0.148630,0.261424,-0.085569
"2018-06-06 23:15:14.508 +0000",1528326914.507624,1.548827,-1.117450,1.174146,0.437867,0.898987,-0.009621,0.000000,0.000000,0.000000,-1,0.405723,1.170449,0.969611,-0.179062,0.084336,-0.039268
"2018-06-06 23:15:14.518 +0000",1528326914.517696,1.559688,-1.106496,1.171413,0.447766,0.894135,-0.004974,0.000000,0.000000,0.000000,-1,0.059268,1.388665,1.059242,-0.357282,0.000808,0.074813
"2018-06-06 23:15:14.528 +0000",1528326914.527768,1.569165,-1.099044,1.171097,0.454443,0.890774,-0.000741,0.000000,0.000000,0.000000,-1,0.033589,0.693183,0.659289,-0.360800,0.105747,-0.091986
"2018-06-06 23:15:14.538 +0000",1528326914.537841,1.567099,-1.092098,1.168511,0.460618,0.887595,-0.001703,0.000000,0.000000,0.000000,-1,0.154726,-0.132240,0.715771,0.025832,0.338540,-0.149664
"2018-06-06 23:15:14.548 +0000",1528326914.547913,1.561316,-1.084387,1.164630,0.467430,0.884017,-0.004432,0.000000,0.000000,0.000000,-1,0.171142,-0.241143,0.779955,0.360924,0.263886,0.087592
"2018-06-06 23:15:14.558 +0000",1528326914.557985,1.560483,-1.076480,1.164660,0.474401,0.880293,-0.004893,0.000000,0.000000,0.000000,-1,-0.066479,0.016172,0.780172,0.412623,0.201066,0.059062
"2018-06-06 23:15:14.568 +0000",1528326914.568058,1.570125,-1.069113,1.170572,0.480899,0.876774,-0.000323,0.000000,0.000000,0.000000,-1,-0.345882,0.586524,0.711479,0.210385,0.013546,0.029437
"2018-06-06 23:15:14.578 +0000",1528326914.578130,1.584698,-1.062999,1.178599,0.486203,0.873818,0.006759,0.000000,0.000000,0.000000,-1,-0.351174,0.737533,0.561340,-0.004117,-0.052559,-0.069351
"2018-06-06 23:15:14.588 +0000",1528326914.588203,1.591891,-1.058880,1.181106,0.489737,0.871807,0.010332,0.000000,0.000000,0.000000,-1,-0.046759,0.400040,0.353137,-0.058524,-0.013272,-0.140123
"2018-06-06 23:15:14.598 +0000",1528326914.598275,1.592963,-1.055899,1.179584,0.492322,0.870343,0.010915,0.000000,0.000000,0.000000,-1,0.086204,0.197555,0.297386,-0.109311,-0.118924,0.024882
"2018-06-06 23:15:14.608 +0000",1528326914.608347,1.592462,-1.052676,1.177738,0.495129,0.868752,0.010729,0.000000,0.000000,0.000000,-1,0.090268,0.083264,0.329313,-0.147106,-0.204414,0.113386
"2018-06-06 23:15:14.618 +0000",1528326914.618420,1.589755,-1.049065,1.174984,0.498289,0.866958,0.009448,0.000000,0.000000,0.000000,-1,0.151012,-0.083610,0.372790,-0.077040,-0.090819,0.050763
"2018-06-06 23:15:14.628 +0000",1528326914.628492,1.584521,-1.045537,1.170720,0.501386,0.865194,0.006882,0.000000,0.000000,0.000000,-1,0.221779,-0.156787,0.330465,-0.018217,-0.039663,0.024322
"2018-06-06 23:15:14.639 +0000",1528326914.638564,1.580599,-1.043015,1.167888,0.503591,0.863926,0.004937,0.000000,0.000000,0.000000,-1,0.079540,-0.154655,0.251199,-0.060506,-0.053563,0.051383
"2018-06-06 23:15:14.649 +0000",1528326914.648637,1.577804,-1.040148,1.166520,0.506077,0.862479,0.003546,0.000000,0.000000,0.000000,-1,0.102427,-0.174481,0.282283,0.033749,-0.032157,0.058404
"2018-06-06 23:15:14.659 +0000",1528326914.658709,1.569742,-1.037485,1.161148,0.508384,0.861128,-0.000536,0.000000,0.000000,0.000000,-1,0.323374,-0.421886,0.263847,0.114037,0.109758,-0.002027
"2018-06-06 23:15:14.669 +0000",1528326914.668782,1.555130,-1.034401,1.152535,0.510975,0.859556,-0.008006,0.000000,0.000000,0.000000,-1,0.465075,-0.807061,0.323714,0.204952,0.229952,-0.000204
"2018-06-06 23:15:14.679 +0000",1528326914.678854,1.539254,-1.029500,1.144149,0.514988,0.857042,-0.016249,0.000000,0.000000,0.000000,-1,0.414122,-0.841019,0.534558,0.232556,0.188460,0.058928
"2018-06-06 23:15:14.689 +0000",1528326914.688926,1.529182,-1.022553,1.139323,0.520735,0.853441,-0.021682,0.000000,0.000000,0.000000,-1,0.221241,-0.467960,0.712491,0.160433,-0.027925,0.124664
"2018-06-06 23:15:14.699 +0000",1528326914.698999,1.523998,-1.015798,1.135534,0.526361,0.849901,-0.024651,0.000000,0.000000,0.000000,-1,0.247801,-0.140416,0.632709,-0.017374,-0.033663,0.111092
"2018-06-06 23:15:14.709 +0000",1528326914.709071,1.538607,-1.011056,1.142806,0.530688,0.847393,-0.017088,0.000000,0.000000,0.000000,-1,-0.733334,1.397759,0.458722,-0.269351,-0.225918,0.292601
"2018-06-06 23:15:14.719 +0000",1528326914.719143,1.575445,-1.007725,1.162959,0.533777,0.845620,0.002481,0.000000,0.000000,0.000000,-1,-1.023272,1.957654,0.258794,-0.538614,-0.581780,0.417029
"2018-06-06 23:15:14.729 +0000",1528326914.729216,1.597657,-1.007199,1.173481,0.534035,0.845339,0.014348,0.000000,0.000000,0.000000,-1,-0.419816,1.120556,0.015108,-0.411095,0.139387,-0.330907
"2018-06-06 23:15:14.739 +0000",1528326914.739288,1.608851,-1.007855,1.176799,0.533287,0.845689,0.020304,0.000000,0.000000,0.000000,-1,-0.127649,0.783748,-0.102711,-0.301384,0.062362,-0.083735
"2018-06-06 23:15:14.749 +0000",1528326914.749361,1.615509,-1.008984,1.178361,0.532186,0.846291,0.023811,0.000000,0.000000,0.000000,-1,-0.032736,0.399802,-0.105121,-0.090047,-0.114739,0.170647
"2018-06-06 23:15:14.759 +0000",1528326914.759433,1.614995,-1.009339,1.177026,0.531897,0.846480,0.023524,0.000000,0.000000,0.000000,-1,0.098206,-0.020689,-0.007684,0.138330,-0.023848,0.103368
"2018-06-06 23:15:14.770 +0000",1528326914.769506,1.614241,-1.009211,1.175735,0.532023,0.846412,0.023128,0.000000,0.000000,0.000000,-1,0.053639,0.087676,0.037910,0.174917,-0.044364,0.122548
"2018-06-06 23:15:14.780 +0000",1528326914.779578,1.616086,-1.009038,1.174905,0.532125,0.846320,0.024116,0.000000,0.000000,0.000000,-1,0.047351,0.302941,0.009508,0.130976,-0.076453,0.058449
"2018-06-06 23:15:14.790 +0000",1528326914.789650,1.619035,-1.009491,1.173913,0.531669,0.846561,0.025667,0.000000,0.000000,0.000000,-1,0.058320,0.385600,-0.061269,0.107812,0.014111,0.000395
"2018-06-06 23:15:14.800 +0000",1528326914.799722,1.620983,-1.010741,1.172465,0.530561,0.847226,0.026650,0.000000,0.000000,0.000000,-1,0.091579,0.278437,-0.139103,0.089907,0.037921,0.003929
"2018-06-06 23:15:14.810 +0000",1528326914.809795,1.621822,-1.012891,1.170936,0.528718,0.848366,0.027002,0.000000,0.000000,0.000000,-1,0.099577,0.184354,-0.211464,0.083434,0.025673,0.017081
"2018-06-06 23:15:14.820 +0000",1528326914.819867,1.621780,-1.015707,1.169608,0.526332,0.849853,0.026857,0.000000,0.000000,0.000000,-1,0.075200,0.084791,-0.307430,0.072561,0.049942,0.019895
"2018-06-06 23:15:14.830 +0000",1528326914.829940,1.622171,-1.020019,1.169332,0.522656,0.852118,0.026875,0.000000,0.000000,0.000000,-1,0.023855,0.060025,-0.456899,0.053134,0.068659,0.001201
"2018-06-06 23:15:14.840 +0000",1528326914.840012,1.623868,-1.025424,1.170052,0.518003,0.854934,0.027517,0.000000,0.000000,0.000000,-1,-0.016294,0.130652,-0.571696,0.057254,0.038132,-0.012457
"2018-06-06 23:15:14.850 +0000",1528326914.850084,1.626601,-1.032869,1.170630,0.511556,0.858773,0.028577,0.000000,0.000000,0.000000,-1,0.039842,0.243667,-0.783398,0.033107,0.018974,-0.015698
"2018-06-06 23:15:14.860 +0000",1528326914.860157,1.628590,-1.042268,1.169400,0.503417,0.863550,0.029127,0.000000,0.000000,0.000000,-1,0.137849,0.317180,-0.971646,0.021943,0.032949,-0.023649
"2018-06-06 23:15:14.870 +0000",1528326914.870229,1.629424,-1.053095,1.166528,0.494030,0.868959,0.028997,0.000000,0.000000,0.000000,-1,0.233308,0.332231,-1.094445,-0.002331,0.018706,-0.026616
"2018-06-06 23:15:14.880 +0000",1528326914.880302,1.627318,-1.065247,1.160636,0.483511,0.874908,0.027358,0.000000,0.000000,0.000000,-1,0.403443,0.284940,-1.222973,-0.035757,0.030701,-0.042907
"2018-06-06 23:15:14.890 +0000",1528326914.890374,1.620500,-1.079186,1.150598,0.471458,0.881574,0.023452,0.000000,0.000000,0.000000,-1,0.609655,0.152278,-1.388405,-0.051445,0.049151,-0.061752
"2018-06-06 23:15:14.900 +0000",1528326914.900446,1.607601,-1.095079,1.135784,0.457662,0.888964,0.016852,0.000000,0.000000,0.000000,-1,0.801515,-0.020870,-1.594797,-0.045705,0.028699,-0.053305
"2018-06-06 23:15:14.911 +0000",1528326914.910519,1.587838,-1.112164,1.115465,0.442654,0.896659,0.007544,0.000000,0.000000,0.000000,-1,1.000863,-0.205479,-1.680766,-0.020336,0.032876,-0.034858
"2018-06-06 23:15:14.921 +0000",1528326914.920591,1.561753,-1.128906,1.089688,0.427628,0.903945,-0.003867,0.000000,0.000000,0.000000,-1,1.152996,-0.303997,-1.646980,0.002518,0.029313,-0.020471
"2018-06-06 23:15:14.931 +0000",1528326914.930663,1.530263,-1.145262,1.058655,0.412464,0.910818,-0.016728,0.000000,0.000000,0.000000,-1,1.296875,-0.351933,-1.638844,-0.024845,-0.005270,-0.022381
"2018-06-06 23:15:14.941 +0000",1528326914.940736,1.492386,-1.161156,1.022994,0.397052,0.917264,-0.031197,0.000000,0.000000,0.000000,-1,1.336247,-0.604164,-1.674089,-0.077823,-0.011502,-0.070289
"2018-06-06 23:15:14.951 +0000",1528326914.950808,1.451005,-1.177597,0.986581,0.380396,0.923688,-0.045787,0.000000,0.000000,0.000000,-1,1.197677,-0.803833,-1.795900,-0.135126,-0.058804,-0.074589
"2018-06-06 23:15:14.961 +0000",1528326914.960881,1.416407,-1.195028,0.954963,0.362618,0.930226,-0.056433,0.000000,0.000000,0.000000,-1,0.809386,-0.388461,-1.890611,-0.142723,-0.188969,0.073050
"2018-06-06 23:15:14.971 +0000",1528326914.970953,1.402215,-1.212828,0.938140,0.345400,0.936611,-0.058786,0.000000,0.000000,0.000000,-1,0.134705,0.318417,-1.793428,-0.090838,-0.244396,0.182382
"2018-06-06 23:15:14.981 +0000",1528326914.981025,1.407159,-1.230107,0.937511,0.329668,0.942524,-0.054433,0.000000,0.000000,0.000000,-1,-0.356032,0.574463,-1.658180,-0.075106,-0.250309,0.178029
"2018-06-06 23:15:14.991 +0000",1528326914.991098,1.416954,-1.245649,0.943020,0.315670,0.947604,-0.048950,0.000000,0.000000,0.000000,-1,-0.408990,0.391178,-1.441311,-0.083294,-0.104464,-0.022415
"2018-06-06 23:15:15.001 +0000",1528326915.001170,1.419297,-1.259094,0.944939,0.303161,0.951813,-0.046283,0.000000,0.000000,0.000000,-1,-0.204934,-0.065578,-1.286063,-0.093841,0.024139,-0.089306
"2018-06-06 23:15:15.011 +0000",1528326915.011242,1.414486,-1.271978,0.942704,0.290796,0.955685,-0.045828,0.000000,0.000000,0.000000,-1,-0.118930,-0.294959,-1.241750,-0.111612,0.151722,-0.068140
"2018-06-06 23:15:15.021 +0000",1528326915.021315,1.413426,-1.283557,0.944377,0.279798,0.959030,-0.044399,0.000000,0.000000,0.000000,-1,-0.271490,-0.247772,-1.076690,-0.093244,0.059052,-0.003071
"2018-06-06 23:15:15.031 +0000",1528326915.031387,1.416643,-1.293489,0.950465,0.270514,0.961796,-0.042034,0.000000,0.000000,0.000000,-1,-0.316865,-0.277143,-0.908871,-0.092657,0.076183,-0.077870
"2018-06-06 23:15:15.041 +0000",1528326915.041460,1.418465,-1.301817,0.955598,0.262663,0.964043,-0.040324,0.000000,0.000000,0.000000,-1,-0.238131,-0.317060,-0.761804,-0.094588,0.137321,-0.140416
"2018-06-06 23:15:15.052 +0000",1528326915.051532,1.418606,-1.308611,0.958796,0.256188,0.965826,-0.039293,0.000000,0.000000,0.000000,-1,-0.161726,-0.283519,-0.594081,-0.071709,0.079721,-0.102110
"2018-06-06 23:15:15.062 +0000",1528326915.061604,1.419553,-1.313283,0.962291,0.251762,0.967026,-0.038370,0.000000,0.000000,0.000000,-1,-0.163299,-0.228366,-0.395998,-0.077186,-0.009140,-0.057379
"2018-06-06 23:15:15.072 +0000",1528326915.071677,1.421028,-1.316107,0.966153,0.249117,0.967742,-0.037591,0.000000,0.000000,0.000000,-1,-0.115248,-0.226753,-0.225076,-0.092974,0.046831,-0.060920
"2018-06-06 23:15:15.082 +0000",1528326915.081749,1.418040,-1.317567,0.965535,0.247605,0.968108,-0.038120,0.000000,0.000000,0.000000,-1,0.029973,-0.233362,-0.123241,-0.051042,0.210801,-0.087292
"2018-06-06 23:15:15.092 +0000",1528326915.091821,1.412616,-1.317599,0.961191,0.247365,0.968116,-0.039458,0.000000,0.000000,0.000000,-1,0.127442,-0.062439,0.020094,-0.050801,0.210793,-0.085954
"2018-06-06 23:15:15.102 +0000",1528326915.101894,1.408006,-1.316175,0.954916,0.248541,0.967759,-0.040821,0.000000,0.000000,0.000000,-1,0.198541,0.213790,0.164871,0.037973,0.064849,-0.046871
"2018-06-06 23:15:15.112 +0000",1528326915.111966,1.404214,-1.313494,0.947447,0.250943,0.967080,-0.042194,0.000000,0.000000,0.000000,-1,0.236610,0.368329,0.249133,0.007235,0.072333,-0.020138
"2018-06-06 23:15:15.122 +0000",1528326915.122038,1.400766,-1.310276,0.939940,0.253862,0.966256,-0.043585,0.000000,0.000000,0.000000,-1,0.241508,0.375838,0.294321,-0.023592,0.067771,-0.013803
"2018-06-06 23:15:15.132 +0000",1528326915.132111,1.398058,-1.306792,0.933161,0.257058,0.965353,-0.044851,0.000000,0.000000,0.000000,-1,0.234813,0.388785,0.343854,-0.040536,0.045359,-0.015727
"2018-06-06 23:15:15.142 +0000",1528326915.142183,1.396044,-1.302318,0.926611,0.261218,0.964176,-0.046119,0.000000,0.000000,0.000000,-1,0.252997,0.435670,0.432151,-0.039462,0.026486,-0.026025
"2018-06-06 23:15:15.152 +0000",1528326915.152256,1.392340,-1.296584,0.918649,0.266483,0.962639,-0.048067,0.000000,0.000000,0.000000,-1,0.327770,0.368415,0.551181,-0.036686,0.020455,-0.048018
"2018-06-06 23:15:15.162 +0000",1528326915.162328,1.387566,-1.289676,0.911245,0.272783,0.960745,-0.050549,0.000000,0.000000,0.000000,-1,0.309182,0.177951,0.670066,-0.049821,0.019785,-0.028873
"2018-06-06 23:15:15.172 +0000",1528326915.172400,1.383746,-1.281619,0.906838,0.280183,0.958479,-0.053028,0.000000,0.000000,0.000000,-1,0.265112,0.005939,0.822408,-0.041123,0.022554,-0.006512
"2018-06-06 23:15:15.182 +0000",1528326915.182473,1.378761,-1.271888,0.902162,0.289058,0.955658,-0.056202,0.000000,0.000000,0.000000,-1,0.254220,-0.035515,1.014853,-0.003062,-0.001343,-0.012173
"2018-06-06 23:15:15.193 +0000",1528326915.192545,1.375966,-1.260922,0.899885,0.299164,0.952372,-0.059035,0.000000,0.000000,0.000000,-1,0.287139,-0.069324,1.245943,0.018524,-0.026118,-0.013795
"2018-06-06 23:15:15.203 +0000",1528326915.202618,1.373212,-1.246428,0.898286,0.312503,0.947852,-0.062562,0.000000,0.000000,0.000000,-1,0.339210,-0.135896,1.448927,0.017468,-0.067817,0.000077
"2018-06-06 23:15:15.213 +0000",1528326915.212690,1.371211,-1.230641,0.897430,0.327004,0.942703,-0.066146,0.000000,0.000000,0.000000,-1,0.339332,-0.106747,1.566257,0.011741,-0.051468,0.054961
"2018-06-06 23:15:15.223 +0000",1528326915.222762,1.369886,-1.214939,0.897140,0.341381,0.937348,-0.069525,0.000000,0.000000,0.000000,-1,0.313683,-0.114174,1.487772,-0.023617,-0.056718,0.053839
"2018-06-06 23:15:15.233 +0000",1528326915.232835,1.367416,-1.203169,0.895997,0.351989,0.933183,-0.072591,0.000000,0.000000,0.000000,-1,0.263007,-0.141820,0.977952,-0.092147,-0.105561,0.017477
"2018-06-06 23:15:15.243 +0000",1528326915.242907,1.360637,-1.199048,0.890282,0.355247,0.931694,-0.075777,0.000000,0.000000,0.000000,-1,0.285695,-0.134154,0.210987,-0.095588,-0.153221,-0.002180
"2018-06-06 23:15:15.253 +0000",1528326915.252979,1.355242,-1.197443,0.885333,0.356293,0.931110,-0.078012,0.000000,0.000000,0.000000,-1,0.168510,-0.066136,0.143688,0.101883,-0.174411,0.011911
"2018-06-06 23:15:15.263 +0000",1528326915.263052,1.355181,-1.195500,0.885771,0.358055,0.930399,-0.078421,0.000000,0.000000,0.000000,-1,-0.011567,-0.037238,0.201194,0.107200,-0.063837,0.065497
"2018-06-06 23:15:15.273 +0000",1528326915.273124,1.356567,-1.193711,0.887598,0.359790,0.929742,-0.078279,0.000000,0.000000,0.000000,-1,-0.020893,-0.040489,0.185071,0.023785,0.008949,0.027101
"2018-06-06 23:15:15.283 +0000",1528326915.283196,1.355755,-1.191825,0.888442,0.361439,0.929046,-0.078945,0.000000,0.000000,0.000000,-1,0.017013,-0.203986,0.193114,0.026776,0.015489,-0.046605
"2018-06-06 23:15:15.293 +0000",1528326915.293269,1.354037,-1.189701,0.889704,0.363229,0.928258,-0.079990,0.000000,0.000000,0.000000,-1,-0.006453,-0.303097,0.252039,0.018072,0.023586,-0.065777
"2018-06-06 23:15:15.303 +0000",1528326915.303341,1.353680,-1.186540,0.892723,0.366065,0.927077,-0.080751,0.000000,0.000000,0.000000,-1,-0.050310,-0.312438,0.356450,0.001672,-0.000686,-0.023253
"2018-06-06 23:15:15.313 +0000",1528326915.313414,1.354937,-1.182668,0.897337,0.369670,0.925619,-0.081059,0.000000,0.000000,0.000000,-1,-0.098153,-0.296412,0.429750,-0.021678,0.003123,-0.009028
"2018-06-06 23:15:15.323 +0000",1528326915.323486,1.357283,-1.178188,0.902901,0.373907,0.923914,-0.081070,0.000000,0.000000,0.000000,-1,-0.112335,-0.272575,0.495467,-0.019461,-0.020106,-0.013275
"2018-06-06 23:15:15.334 +0000",1528326915.333558,1.359792,-1.173346,0.907703,0.378480,0.922051,-0.081068,0.000000,0.000000,0.000000,-1,-0.058054,-0.162774,0.525780,0.008163,-0.050042,-0.020083
"2018-06-06 23:15:15.344 +0000",1528326915.343631,1.361543,-1.168154,0.910530,0.383299,0.920029,-0.081398,0.000000,0.000000,0.000000,-1,0.019582,-0.061559,0.524821,0.055635,-0.077942,-0.033439
"2018-06-06 23:15:15.354 +0000",1528326915.353703,1.362958,-1.162920,0.911979,0.388120,0.917965,-0.081848,0.000000,0.000000,0.000000,-1,0.057354,0.031882,0.518552,0.120272,-0.085598,-0.042679
"2018-06-06 23:15:15.364 +0000",1528326915.363775,1.365696,-1.157859,0.914037,0.392887,0.915946,-0.081730,0.000000,0.000000,0.000000,-1,0.005905,0.097649,0.508105,0.157818,-0.071586,-0.014888
"2018-06-06 23:15:15.374 +0000",1528326915.373848,1.370223,-1.153278,0.917926,0.397361,0.914098,-0.080786,0.000000,0.000000,0.000000,-1,-0.081020,0.090956,0.476015,0.174432,-0.057775,0.007147
"2018-06-06 23:15:15.384 +0000",1528326915.383920,1.373565,-1.150215,0.921338,0.400372,0.912852,-0.080006,0.000000,0.000000,0.000000,-1,-0.150806,0.047148,0.405055,0.185413,-0.062724,0.013310
"2018-06-06 23:15:15.394 +0000",1528326915.393993,1.377629,-1.148857,0.925909,0.401910,0.912297,-0.078616,0.000000,0.000000,0.000000,-1,-0.199364,0.005717,0.305011,0.171347,-0.064152,0.009708
"2018-06-06 23:15:15.404 +0000",1528326915.404065,1.381188,-1.148325,0.930362,0.402664,0.912079,-0.077277,0.000000,0.000000,0.000000,-1,-0.237491,-0.012660,0.211463,0.140122,-0.060821,0.006735
"2018-06-06 23:15:15.414 +0000",1528326915.414137,1.384888,-1.147154,0.935000,0.403997,0.911598,-0.075984,0.000000,0.000000,0.000000,-1,-0.253698,-0.016772,0.134042,0.094844,-0.050346,-0.004155
"2018-06-06 23:15:15.424 +0000",1528326915.424210,1.387957,-1.144546,0.939227,0.406565,0.910522,-0.075176,0.000000,0.000000,0.000000,-1,-0.248056,-0.044002,0.086622,0.044042,-0.035355,-0.030827
"2018-06-06 23:15:15.434 +0000",1528326915.434282,1.390685,-1.140176,0.943345,0.410680,0.908707,-0.074778,0.000000,0.000000,0.000000,-1,-0.234201,-0.072410,0.063919,0.002269,-0.017899,-0.046117
"2018-06-06 23:15:15.444 +0000",1528326915.444354,1.395323,-1.135316,0.949199,0.415365,0.906668,-0.073643,0.000000,0.000000,0.000000,-1,-0.212077,-0.072312,0.055263,-0.017294,-0.006079,-0.049801
"2018-06-06 23:15:15.454 +0000",1528326915.454427,1.401390,-1.130391,0.955881,0.420201,0.904579,-0.071874,0.000000,0.000000,0.000000,-1,-0.192147,-0.019551,0.052144,-0.024602,-0.013481,-0.038081
"2018-06-06 23:15:15.464 +0000",1528326915.464499,1.408109,-1.125100,0.962529,0.425392,0.902311,-0.069823,0.000000,0.000000,0.000000,-1,-0.182726,0.039768,0.049068,-0.021934,-0.030729,-0.023835
"2018-06-06 23:15:15.475 +0000",1528326915.474572,1.414760,-1.119817,0.968591,0.430550,0.900021,-0.067732,0.000000,0.000000,0.000000,-1,-0.179592,0.099078,0.043855,-0.012307,-0.048672,-0.017625
"2018-06-06 23:15:15.485 +0000",1528326915.484644,1.421026,-1.115197,0.973752,0.435074,0.897997,-0.065653,0.000000,0.000000,0.000000,-1,-0.172259,0.154004,0.039696,0.002411,-0.062701,-0.019171
"2018-06-06 23:15:15.495 +0000",1528326915.494716,1.425969,-1.112401,0.977177,0.437876,0.896764,-0.063863,0.000000,0.000000,0.000000,-1,-0.160699,0.206760,0.032293,0.016806,-0.062901,-0.013789
"2018-06-06 23:15:15.505 +0000",1528326915.504789,1.428338,-1.111450,0.977879,0.438870,0.896342,-0.062947,0.000000,0.000000,0.000000,-1,-0.157499,0.241943,0.021632,0.021549,-0.043269,-0.007900
"2018-06-06 23:15:15.515 +0000",1528326915.514861,1.429287,-1.112023,0.977089,0.438421,0.896596,-0.062458,0.000000,0.000000,0.000000,-1,-0.155315,0.266158,0.007714,0.024165,-0.020498,-0.011608
"2018-06-06 23:15:15.525 +0000",1528326915.524933,1.430008,-1.113234,0.975850,0.437390,0.897132,-0.061990,0.000000,0.000000,0.000000,-1,-0.137393,0.283817,-0.003032,0.022342,-0.008231,-0.033256
"2018-06-06 23:15:15.535 +0000",1528326915.535007,1.431333,-1.114389,0.974800,0.436446,0.897642,-0.061266,0.000000,0.000000,0.000000,-1,-0.096384,0.304825,-0.011670,0.020997,-0.006101,-0.062055
"2018-06-06 23:15:15.545 +0000",1528326915.545079,1.433121,-1.115076,0.973823,0.435944,0.897944,-0.060401,0.000000,0.000000,0.000000,-1,-0.049069,0.313771,-0.019282,0.023041,-0.012172,-0.083505
"2018-06-06 23:15:15.555 +0000",1528326915.555152,1.434771,-1.115101,0.972551,0.436021,0.897955,-0.059679,0.000000,0.000000,0.000000,-1,-0.010160,0.309511,-0.024762,0.033873,-0.021185,-0.091246
"2018-06-06 23:15:15.565 +0000",1528326915.565224,1.435700,-1.114508,0.970731,0.436604,0.897694,-0.059345,0.000000,0.000000,0.000000,-1,0.017263,0.276699,-0.035677,0.049038,-0.026814,-0.090374
"2018-06-06 23:15:15.575 +0000",1528326915.575296,1.436499,-1.113577,0.969122,0.437479,0.897283,-0.059108,0.000000,0.000000,0.000000,-1,0.025788,0.227365,-0.045521,0.073156,-0.020407,-0.087880
"2018-06-06 23:15:15.585 +0000",1528326915.585369,1.436848,-1.112774,0.967702,0.438214,0.896929,-0.059052,0.000000,0.000000,0.000000,-1,0.036381,0.152756,-0.047913,0.100390,-0.018389,-0.104324
"2018-06-06 23:15:15.595 +0000",1528326915.595441,1.435599,-1.112163,0.965378,0.438683,0.896658,-0.059673,0.000000,0.000000,0.000000,-1,0.079443,0.078188,-0.038548,0.130272,-0.026480,-0.136494
"2018-06-06 23:15:15.606 +0000",1528326915.605513,1.431592,-1.111562,0.960750,0.438974,0.896392,-0.061505,0.000000,0.000000,0.000000,-1,0.140293,0.048664,-0.025865,0.154319,-0.039214,-0.151066
"2018-06-06 23:15:15.616 +0000",1528326915.615586,1.424582,-1.110746,0.953204,0.439255,0.896030,-0.064687,0.000000,0.000000,0.000000,-1,0.213724,0.043326,-0.013141,0.158569,-0.051807,-0.150294
"2018-06-06 23:15:15.626 +0000",1528326915.625658,1.419707,-1.110509,0.947455,0.439144,0.895925,-0.066859,0.000000,0.000000,0.000000,-1,0.266289,0.020433,-0.016555,0.158680,-0.051702,-0.148122
"2018-06-06 23:15:15.636 +0000",1528326915.635731,1.405004,-1.108259,0.933056,0.440100,0.894923,-0.073641,0.000000,0.000000,0.000000,-1,0.322065,-0.030975,-0.024362,0.140039,-0.070399,-0.163023
"2018-06-06 23:15:15.646 +0000",1528326915.645803,1.393616,-1.106661,0.921958,0.440641,0.894209,-0.078900,0.000000,0.000000,0.000000,-1,0.393634,-0.103186,-0.034417,0.137942,-0.069319,-0.185504
"2018-06-06 23:15:15.656 +0000",1528326915.655875,1.380532,-1.104863,0.909659,0.441148,0.893403,-0.084963,0.000000,0.000000,0.000000,-1,0.496743,-0.189572,-0.046736,0.141890,-0.071015,-0.204710
"2018-06-06 23:15:15.666 +0000",1528326915.665948,1.364336,-1.102601,0.894953,0.441691,0.892384,-0.092510,0.000000,0.000000,0.000000,-1,0.623898,-0.295723,-0.041958,0.162633,-0.064778,-0.200871
"2018-06-06 23:15:15.676 +0000",1528326915.676020,1.344469,-1.099570,0.877467,0.442400,0.891012,-0.101873,0.000000,0.000000,0.000000,-1,0.756112,-0.417340,-0.010345,0.202985,-0.027090,-0.165660
"2018-06-06 23:15:15.686 +0000",1528326915.686092,1.322138,-1.095659,0.858612,0.443389,0.889230,-0.112582,0.000000,0.000000,0.000000,-1,0.849192,-0.556789,0.058953,0.245927,0.050269,-0.111829
"2018-06-06 23:15:15.696 +0000",1528326915.696165,1.299449,-1.092122,0.840876,0.443748,0.887607,-0.123455,0.000000,0.000000,0.000000,-1,0.872767,-0.738267,0.157330,0.276558,0.153455,-0.067371
"2018-06-06 23:15:15.706 +0000",1528326915.706237,1.275285,-1.087414,0.824038,0.444629,0.885428,-0.135356,0.000000,0.000000,0.000000,-1,0.876450,-0.979076,0.254505,0.282467,0.251306,-0.058507
"2018-06-06 23:15:15.716 +0000",1528326915.716309,1.248941,-1.081737,0.807197,0.445671,0.882775,-0.148609,0.000000,0.000000,0.000000,-1,0.936082,-1.184429,0.310780,0.255058,0.330512,-0.095166
"2018-06-06 23:15:15.726 +0000",1528326915.726382,1.219366,-1.075112,0.788313,0.446563,0.879643,-0.163732,0.000000,0.000000,0.000000,-1,1.103037,-1.310300,0.332620,0.254166,0.333644,-0.080042
"2018-06-06 23:15:15.736 +0000",1528326915.736454,1.185427,-1.067152,0.765268,0.447224,0.875830,-0.181418,0.000000,0.000000,0.000000,-1,1.385536,-1.374339,0.345771,0.136897,0.393885,-0.202768
"2018-06-06 23:15:15.747 +0000",1528326915.746527,1.146710,-1.057437,0.737229,0.447602,0.871099,-0.202084,0.000000,0.000000,0.000000,-1,1.701690,-1.422883,0.351359,0.060577,0.351740,-0.249072
"2018-06-06 23:15:15.757 +0000",1528326915.756599,1.104856,-1.045969,0.705487,0.447649,0.865411,-0.225109,0.000000,0.000000,0.000000,-1,1.974714,-1.394700,0.356194,-0.005800,0.306480,-0.232624
"2018-06-06 23:15:15.767 +0000",1528326915.766671,1.061167,-1.032559,0.670113,0.447482,0.858613,-0.250085,0.000000,0.000000,0.000000,-1,2.266774,-1.288411,0.334322,-0.011034,0.267195,-0.223456
"2018-06-06 23:15:15.777 +0000",1528326915.776744,1.016158,-1.017467,0.631906,0.446741,0.850780,-0.276759,0.000000,0.000000,0.000000,-1,2.517094,-1.200760,0.279145,0.000891,0.227940,-0.154775
"2018-06-06 23:15:15.787 +0000",1528326915.786816,0.970576,-1.000567,0.592020,0.445469,0.841777,-0.304906,0.000000,0.000000,0.000000,-1,2.730533,-1.185768,0.248582,0.008648,0.183415,-0.040431
"2018-06-06 23:15:15.797 +0000",1528326915.796888,0.924230,-0.982068,0.552776,0.443219,0.831648,-0.334542,0.000000,0.000000,0.000000,-1,2.814796,-1.410564,0.245584,0.008792,0.157747,0.028573
"2018-06-06 23:15:15.807 +0000",1528326915.806961,0.877594,-0.962832,0.516715,0.439367,0.820813,-0.364997,0.000000,0.000000,0.000000,-1,2.737416,-1.758765,0.243673,-0.031133,0.161334,0.065940
"2018-06-06 23:15:15.817 +0000",1528326915.817033,0.832423,-0.944160,0.485690,0.433698,0.810005,-0.394713,0.000000,0.000000,0.000000,-1,2.490959,-2.027242,0.228397,-0.097089,0.164208,0.100478
"2018-06-06 23:15:15.827 +0000",1528326915.827105,0.792286,-0.926913,0.461151,0.427393,0.799771,-0.421546,0.000000,0.000000,0.000000,-1,2.134677,-1.996500,0.252967,-0.128275,0.152759,0.180228
"2018-06-06 23:15:15.837 +0000",1528326915.837178,0.758259,-0.911869,0.442558,0.421032,0.790649,-0.444528,0.000000,0.000000,0.000000,-1,1.754463,-1.891014,0.239085,-0.156063,0.200638,0.234537
"2018-06-06 23:15:15.847 +0000",1528326915.847250,0.728466,-0.899361,0.427999,0.414155,0.782930,-0.464216,0.000000,0.000000,0.000000,-1,1.446143,-1.802642,0.165831,-0.182877,0.286040,0.240660
"2018-06-06 23:15:15.857 +0000",1528326915.857323,0.701032,-0.889008,0.416212,0.406471,0.776447,-0.481571,0.000000,0.000000,0.000000,-1,1.198719,-1.816262,0.108273,-0.187081,0.331371,0.254550
"2018-06-06 23:15:15.867 +0000",1528326915.867395,0.675222,-0.880083,0.407463,0.398225,0.770792,-0.497290,0.000000,0.000000,0.000000,-1,0.975768,-1.923574,0.157951,-0.106934,0.324362,0.299582
"2018-06-06 23:15:15.877 +0000",1528326915.877467,0.652122,-0.871728,0.402438,0.390527,0.765442,-0.511456,0.000000,0.000000,0.000000,-1,0.822317,-1.870811,0.301517,0.012229,0.277191,0.357235
"2018-06-06 23:15:15.888 +0000",1528326915.887540,0.634145,-0.862621,0.400650,0.385384,0.759550,-0.523987,0.000000,0.000000,0.000000,-1,0.790055,-1.570939,0.499306,0.099983,0.180620,0.349442
"2018-06-06 23:15:15.898 +0000",1528326915.897612,0.620224,-0.852861,0.401293,0.382342,0.753166,-0.535309,0.000000,0.000000,0.000000,-1,0.741602,-1.403676,0.633284,0.115247,0.057992,0.302612
"2018-06-06 23:15:15.908 +0000",1528326915.907684,0.609081,-0.843056,0.404092,0.380561,0.746679,-0.545567,0.000000,0.000000,0.000000,-1,0.669298,-1.296721,0.734871,0.093026,-0.022024,0.290211
"2018-06-06 23:15:15.918 +0000",1528326915.917757,0.599908,-0.833619,0.408884,0.379502,0.740369,-0.554826,0.000000,0.000000,0.000000,-1,0.560484,-1.254532,0.811614,0.075347,-0.077833,0.276582
"2018-06-06 23:15:15.928 +0000",1528326915.927829,0.592433,-0.824902,0.415387,0.378934,0.734481,-0.562980,0.000000,0.000000,0.000000,-1,0.440369,-1.208941,0.855047,0.026401,-0.120315,0.303062
"2018-06-06 23:15:15.938 +0000",1528326915.937902,0.586222,-0.817044,0.423189,0.378611,0.729126,-0.570113,0.000000,0.000000,0.000000,-1,0.327803,-1.178599,0.874755,-0.041086,-0.158417,0.318648
"2018-06-06 23:15:15.948 +0000",1528326915.947974,0.580620,-0.810239,0.432002,0.378124,0.724452,-0.576360,0.000000,0.000000,0.000000,-1,0.200751,-1.195406,0.871770,-0.112987,-0.167414,0.324377
"2018-06-06 23:15:15.958 +0000",1528326915.958046,0.575850,-0.804581,0.441709,0.377596,0.720540,-0.581586,0.000000,0.000000,0.000000,-1,0.072630,-1.158408,0.864642,-0.180819,-0.162023,0.340528
"2018-06-06 23:15:15.968 +0000",1528326915.968119,0.572377,-0.799972,0.452283,0.377369,0.717336,-0.585679,0.000000,0.000000,0.000000,-1,-0.039824,-1.073087,0.862996,-0.227314,-0.162328,0.355440
"2018-06-06 23:15:15.978 +0000",1528326915.978191,0.570621,-0.796407,0.463699,0.377719,0.714848,-0.588490,0.000000,0.000000,0.000000,-1,-0.159604,-0.955921,0.853930,-0.254428,-0.165806,0.366673
"2018-06-06 23:15:15.988 +0000",1528326915.988263,0.570679,-0.793983,0.475705,0.378688,0.713151,-0.589924,0.000000,0.000000,0.000000,-1,-0.277133,-0.805716,0.821292,-0.272960,-0.162385,0.369587
"2018-06-06 23:15:15.998 +0000",1528326915.998336,0.572610,-0.792838,0.487925,0.380269,0.712348,-0.589878,0.000000,0.000000,0.000000,-1,-0.394474,-0.627950,0.760766,-0.282963,-0.152899,0.362064
"2018-06-06 23:15:16.008 +0000",1528326916.008408,0.576410,-0.793093,0.500230,0.382409,0.712527,-0.588276,0.000000,0.000000,0.000000,-1,-0.515923,-0.444652,0.687357,-0.281991,-0.141238,0.354145
"2018-06-06 23:15:16.018 +0000",1528326916.018480,0.582049,-0.794788,0.512434,0.385055,0.713715,-0.585101,0.000000,0.000000,0.000000,-1,-0.622524,-0.264530,0.595620,-0.284561,-0.141343,0.339877
"2018-06-06 23:15:16.029 +0000",1528326916.028553,0.588797,-0.797695,0.524048,0.387841,0.715748,-0.580761,0.000000,0.000000,0.000000,-1,-0.704793,-0.118294,0.485442,-0.287652,-0.132130,0.297390
"2018-06-06 23:15:16.039 +0000",1528326916.038625,0.596372,-0.801854,0.535012,0.390554,0.718647,-0.575338,0.000000,0.000000,0.000000,-1,-0.787009,-0.000585,0.371955,-0.286763,-0.123493,0.258062
"2018-06-06 23:15:16.049 +0000",1528326916.048698,0.604937,-0.807246,0.545579,0.393257,0.722386,-0.568777,0.000000,0.000000,0.000000,-1,-0.874604,0.128022,0.273570,-0.289299,-0.130772,0.230215
"2018-06-06 23:15:16.059 +0000",1528326916.058770,0.614712,-0.814078,0.555947,0.395943,0.727093,-0.560861,0.000000,0.000000,0.000000,-1,-0.976857,0.251123,0.169825,-0.306588,-0.143047,0.192971
"2018-06-06 23:15:16.069 +0000",1528326916.068842,0.625699,-0.822325,0.566285,0.398555,0.732730,-0.551597,0.000000,0.000000,0.000000,-1,-1.109587,0.375227,0.068303,-0.317348,-0.157749,0.158058
"2018-06-06 23:15:16.079 +0000",1528326916.078915,0.638293,-0.832271,0.576922,0.401108,0.739462,-0.540655,0.000000,0.000000,0.000000,-1,-1.253884,0.503686,-0.032103,-0.308793,-0.172384,0.130331
"2018-06-06 23:15:16.089 +0000",1528326916.088987,0.652260,-0.843622,0.587587,0.403500,0.747056,-0.528295,0.000000,0.000000,0.000000,-1,-1.346657,0.633418,-0.140153,-0.282803,-0.177231,0.072255
"2018-06-06 23:15:16.099 +0000",1528326916.099059,0.667258,-0.856044,0.597861,0.405603,0.755256,-0.514854,0.000000,0.000000,0.000000,-1,-1.378529,0.749030,-0.244082,-0.241922,-0.160773,-0.012199
"2018-06-06 23:15:16.109 +0000",1528326916.109132,0.683123,-0.868814,0.607736,0.407598,0.763563,-0.500834,0.000000,0.000000,0.000000,-1,-1.388635,0.857955,-0.309356,-0.172750,-0.134611,-0.091405
"2018-06-06 23:15:16.119 +0000",1528326916.119204,0.700310,-0.881667,0.617852,0.409786,0.771800,-0.486210,0.000000,0.000000,0.000000,-1,-1.394979,0.961158,-0.316571,-0.086956,-0.101420,-0.127209
"2018-06-06 23:15:16.129 +0000",1528326916.129277,0.718901,-0.894212,0.628616,0.412345,0.779716,-0.471184,0.000000,0.000000,0.000000,-1,-1.377364,1.030271,-0.293821,0.010094,-0.058677,-0.146476
"2018-06-06 23:15:16.139 +0000",1528326916.139349,0.737338,-0.906226,0.639324,0.414634,0.787182,-0.456535,0.000000,0.000000,0.000000,-1,-1.297437,0.970140,-0.299558,0.070733,0.007923,-0.203347
"2018-06-06 23:15:16.149 +0000",1528326916.149421,0.753897,-0.917232,0.649264,0.416181,0.793922,-0.443263,0.000000,0.000000,0.000000,-1,-1.183938,0.831001,-0.290541,0.104266,0.082879,-0.285802
"2018-06-06 23:15:16.159 +0000",1528326916.159494,0.769602,-0.926745,0.659016,0.417816,0.799670,-0.431228,0.000000,0.000000,0.000000,-1,-1.053292,0.783783,-0.200624,0.151642,0.118955,-0.271057
"2018-06-06 23:15:16.170 +0000",1528326916.169566,0.786086,-0.934139,0.668998,0.420672,0.804088,-0.420093,0.000000,0.000000,0.000000,-1,-0.899051,0.865928,-0.053375,0.160429,0.127049,-0.173611
"2018-06-06 23:15:16.180 +0000",1528326916.179638,0.803931,-0.939131,0.679559,0.425205,0.807045,-0.409730,0.000000,0.000000,0.000000,-1,-0.745108,0.940221,0.133651,0.124172,0.089348,-0.091308
"2018-06-06 23:15:16.190 +0000",1528326916.189711,0.822259,-0.941675,0.690552,0.431137,0.808545,-0.400470,0.000000,0.000000,0.000000,-1,-0.608744,0.933339,0.294666,0.057053,0.011813,-0.056745
"2018-06-06 23:15:16.200 +0000",1528326916.199783,0.840710,-0.942512,0.701552,0.437948,0.809037,-0.391996,0.000000,0.000000,0.000000,-1,-0.508664,0.952977,0.390226,-0.030646,-0.062043,-0.004962
"2018-06-06 23:15:16.210 +0000",1528326916.209855,0.858978,-0.942602,0.712233,0.444981,0.809090,-0.383882,0.000000,0.000000,0.000000,-1,-0.464638,0.950855,0.401951,-0.113254,-0.052040,0.052050
"2018-06-06 23:15:16.220 +0000",1528326916.219928,0.875789,-0.943014,0.722186,0.451114,0.809332,-0.376134,0.000000,0.000000,0.000000,-1,-0.464982,0.827127,0.325221,-0.188846,0.113947,0.038198
"2018-06-06 23:15:16.230 +0000",1528326916.230000,0.888256,-0.944413,0.731086,0.454890,0.810153,-0.369767,0.000000,0.000000,0.000000,-1,-0.490792,0.379751,0.185221,-0.205424,0.433911,-0.057922
"2018-06-06 23:15:16.240 +0000",1528326916.240073,0.891583,-0.946416,0.737652,0.454854,0.811325,-0.367231,0.000000,0.000000,0.000000,-1,-0.385061,-0.388937,0.052589,-0.109136,0.750030,-0.271120
"2018-06-06 23:15:16.250 +0000",1528326916.250145,0.886955,-0.947796,0.740268,0.452281,0.812132,-0.368625,0.000000,0.000000,0.000000,-1,-0.136250,-0.698567,-0.030630,0.019215,0.888079,-0.282483
"2018-06-06 23:15:16.260 +0000",1528326916.260217,0.879811,-0.948094,0.738177,0.449449,0.812306,-0.371692,0.000000,0.000000,0.000000,-1,0.156160,-0.466875,-0.113451,0.038390,0.757671,-0.019666
"2018-06-06 23:15:16.270 +0000",1528326916.270290,0.871481,-0.947121,0.731140,0.446943,0.811737,-0.375931,0.000000,0.000000,0.000000,-1,0.443371,-0.213202,-0.205876,-0.092283,0.459426,0.087495
"2018-06-06 23:15:16.280 +0000",1528326916.280362,0.861302,-0.945264,0.721034,0.444236,0.810651,-0.381443,0.000000,0.000000,0.000000,-1,0.587559,-0.197265,-0.245959,-0.255774,0.171175,0.078831
"2018-06-06 23:15:16.290 +0000",1528326916.290434,0.852639,-0.943588,0.711602,0.441937,0.809669,-0.386171,0.000000,0.000000,0.000000,-1,0.482236,-0.053833,-0.225939,-0.343991,0.012948,0.278108
"2018-06-06 23:15:16.301 +0000",1528326916.300507,0.848346,-0.943211,0.705697,0.440504,0.809448,-0.388266,0.000000,0.000000,0.000000,-1,0.226498,0.063800,-0.174455,-0.359327,-0.067230,0.461661
"2018-06-06 23:15:16.311 +0000",1528326916.310579,0.846855,-0.943703,0.703774,0.439626,0.809737,-0.388659,0.000000,0.000000,0.000000,-1,0.002193,-0.028305,-0.087082,-0.287038,-0.089522,0.420061
"2018-06-06 23:15:16.321 +0000",1528326916.320651,0.846845,-0.944766,0.705310,0.438978,0.810360,-0.388093,0.000000,0.000000,0.000000,-1,-0.184282,-0.155441,0.002253,-0.166334,-0.091152,0.382538
"2018-06-06 23:15:16.331 +0000",1528326916.330724,0.848595,-0.946776,0.710580,0.438433,0.811536,-0.386246,0.000000,0.000000,0.000000,-1,-0.426272,-0.288140,0.072338,-0.051211,-0.063153,0.418274
"2018-06-06 23:15:16.341 +0000",1528326916.340796,0.852404,-0.950076,0.719981,0.437882,0.813460,-0.382809,0.000000,0.000000,0.000000,-1,-0.665113,-0.401061,0.140323,0.067672,-0.032988,0.384609
"2018-06-06 23:15:16.351 +0000",1528326916.350869,0.858260,-0.953863,0.731740,0.437782,0.815656,-0.378221,0.000000,0.000000,0.000000,-1,-0.776699,-0.340001,0.165496,0.161720,0.023669,0.262895
"2018-06-06 23:15:16.361 +0000",1528326916.360941,0.866255,-0.957592,0.743759,0.438471,0.817808,-0.372736,0.000000,0.000000,0.000000,-1,-0.748538,-0.126953,0.164975,0.240331,0.103853,0.151392
"2018-06-06 23:15:16.371 +0000",1528326916.371013,0.874746,-0.960581,0.753783,0.439743,0.819525,-0.367431,0.000000,0.000000,0.000000,-1,-0.574121,0.093234,0.129720,0.275818,0.173365,0.067138
"2018-06-06 23:15:16.381 +0000",1528326916.381086,0.882671,-0.962449,0.759313,0.441458,0.820594,-0.362962,0.000000,0.000000,0.000000,-1,-0.273385,0.395200,0.048161,0.204950,0.187722,0.000642
"2018-06-06 23:15:16.391 +0000",1528326916.391158,0.889169,-0.963046,0.761526,0.443426,0.820935,-0.359777,0.000000,0.000000,0.000000,-1,-0.099025,0.479161,0.037249,0.134485,0.118381,0.022725
"2018-06-06 23:15:16.401 +0000",1528326916.401230,0.895309,-0.962683,0.762944,0.445859,0.820727,-0.357234,0.000000,0.000000,0.000000,-1,-0.027013,0.495585,0.095217,0.089404,0.054791,0.076029
"2018-06-06 23:15:16.411 +0000",1528326916.411303,0.901643,-0.961550,0.764440,0.448842,0.820080,-0.354979,0.000000,0.000000,0.000000,-1,0.013482,0.510819,0.154329,0.030619,0.032688,0.092696
"2018-06-06 23:15:16.421 +0000",1528326916.421375,0.908230,-0.960089,0.766082,0.452115,0.819243,-0.352751,0.000000,0.000000,0.000000,-1,0.034232,0.520622,0.186579,-0.020520,0.000749,0.104003
"2018-06-06 23:15:16.431 +0000",1528326916.431448,0.914989,-0.958542,0.768028,0.455493,0.818355,-0.350460,0.000000,0.000000,0.000000,-1,-0.005686,0.508426,0.188786,-0.038516,-0.029429,0.102977
"2018-06-06 23:15:16.442 +0000",1528326916.441520,0.922201,-0.957310,0.770517,0.458811,0.817646,-0.347775,0.000000,0.000000,0.000000,-1,-0.047646,0.520420,0.180312,-0.021083,-0.046726,0.085278
"2018-06-06 23:15:16.452 +0000",1528326916.451592,0.929788,-0.956317,0.773143,0.462088,0.817074,-0.344769,0.000000,0.000000,0.000000,-1,-0.063324,0.542386,0.167504,-0.012564,-0.052288,0.052289
"2018-06-06 23:15:16.462 +0000",1528326916.461665,0.937105,-0.955514,0.775880,0.465127,0.816610,-0.341767,0.000000,0.000000,0.000000,-1,-0.065382,0.481994,0.169485,-0.000893,-0.056280,0.035829
"2018-06-06 23:15:16.472 +0000",1528326916.471737,0.943676,-0.954649,0.778903,0.467933,0.816111,-0.339118,0.000000,0.000000,0.000000,-1,-0.101023,0.383083,0.172506,0.019326,-0.064677,0.070029
"2018-06-06 23:15:16.482 +0000",1528326916.481809,0.950037,-0.954208,0.782792,0.470374,0.815856,-0.336344,0.000000,0.000000,0.000000,-1,-0.176488,0.293995,0.162738,0.032769,-0.066817,0.126276
"2018-06-06 23:15:16.492 +0000",1528326916.491882,0.958041,-0.955090,0.789028,0.472462,0.816366,-0.332154,0.000000,0.000000,0.000000,-1,-0.277096,0.223543,0.142327,0.028469,-0.058050,0.168702
"2018-06-06 23:15:16.502 +0000",1528326916.501954,0.965946,-0.957022,0.796135,0.473775,0.817480,-0.327511,0.000000,0.000000,0.000000,-1,-0.379739,0.160811,0.112261,0.004084,-0.041494,0.181805
"2018-06-06 23:15:16.512 +0000",1528326916.512026,0.973786,-0.959595,0.803931,0.474587,0.818959,-0.322604,0.000000,0.000000,0.000000,-1,-0.457125,0.108061,0.074637,-0.033165,-0.035833,0.167178
"2018-06-06 23:15:16.522 +0000",1528326916.522099,0.981268,-0.962377,0.811927,0.475092,0.820553,-0.317776,0.000000,0.000000,0.000000,-1,-0.487130,0.056603,0.021850,-0.069009,-0.038967,0.127056
"2018-06-06 23:15:16.532 +0000",1528326916.532171,0.987213,-0.965135,0.818725,0.475082,0.822126,-0.313697,0.000000,0.000000,0.000000,-1,-0.460371,0.026197,-0.039612,-0.089797,-0.040906,0.076164
"2018-06-06 23:15:16.542 +0000",1528326916.542244,0.991618,-0.967888,0.823893,0.474563,0.823690,-0.310361,0.000000,0.000000,0.000000,-1,-0.384248,0.015698,-0.103280,-0.093704,-0.038122,0.036787
"2018-06-06 23:15:16.552 +0000",1528326916.552316,0.994572,-0.970651,0.827185,0.473568,0.825253,-0.307718,0.000000,0.000000,0.000000,-1,-0.276877,0.029305,-0.135755,-0.076443,-0.038449,0.004205
"2018-06-06 23:15:16.562 +0000",1528326916.562388,0.996061,-0.972877,0.828494,0.472482,0.826509,-0.306012,0.000000,0.000000,0.000000,-1,-0.147600,0.036302,-0.147863,-0.048654,-0.041933,-0.012912
"2018-06-06 23:15:16.572 +0000",1528326916.572461,0.994798,-0.974262,0.827423,0.471135,0.827287,-0.305985,0.000000,0.000000,0.000000,-1,0.015300,-0.069731,-0.147469,-0.034642,-0.050172,-0.062636
"2018-06-06 23:15:16.583 +0000",1528326916.582533,0.990155,-0.974778,0.824221,0.469352,0.827577,-0.307935,0.000000,0.000000,0.000000,-1,0.152987,-0.240638,-0.138601,-0.034400,-0.067446,-0.114413
"2018-06-06 23:15:16.593 +0000",1528326916.592605,0.982430,-0.974645,0.819321,0.467051,0.827503,-0.311613,0.000000,0.000000,0.000000,-1,0.260283,-0.405002,-0.139325,-0.035441,-0.075199,-0.127184
"2018-06-06 23:15:16.603 +0000",1528326916.602678,0.972484,-0.973870,0.813124,0.464458,0.827067,-0.316604,0.000000,0.000000,0.000000,-1,0.352686,-0.494824,-0.124738,-0.035839,-0.087031,-0.119706
"2018-06-06 23:15:16.613 +0000",1528326916.612750,0.961161,-0.972310,0.805829,0.461901,0.826189,-0.322581,0.000000,0.000000,0.000000,-1,0.448103,-0.537483,-0.098190,-0.051073,-0.109301,-0.099966
"2018-06-06 23:15:16.623 +0000",1528326916.622822,0.948716,-0.970069,0.797340,0.459354,0.824925,-0.329382,0.000000,0.000000,0.000000,-1,0.556158,-0.538351,-0.081230,-0.084324,-0.128315,-0.116541
"2018-06-06 23:15:16.633 +0000",1528326916.632895,0.935502,-0.967070,0.787682,0.456951,0.823226,-0.336890,0.000000,0.000000,0.000000,-1,0.630705,-0.518388,-0.080267,-0.112408,-0.133635,-0.086480
"2018-06-06 23:15:16.643 +0000",1528326916.642967,0.921844,-0.963864,0.777442,0.454408,0.821402,-0.344692,0.000000,0.000000,0.000000,-1,0.659198,-0.519334,-0.097545,-0.122056,-0.143591,-0.016834
"2018-06-06 23:15:16.653 +0000",1528326916.653039,0.907808,-0.960918,0.766884,0.451430,0.819718,-0.352524,0.000000,0.000000,0.000000,-1,0.647007,-0.545503,-0.148148,-0.116210,-0.162171,0.071061
"2018-06-06 23:15:16.663 +0000",1528326916.663112,0.892356,-0.958679,0.755821,0.447357,0.818434,-0.360608,0.000000,0.000000,0.000000,-1,0.647785,-0.674680,-0.233502,-0.123123,-0.163053,0.084591
"2018-06-06 23:15:16.673 +0000",1528326916.673184,0.874508,-0.956672,0.743384,0.442110,0.817278,-0.369587,0.000000,0.000000,0.000000,-1,0.684229,-0.781816,-0.315646,-0.144197,-0.151705,0.043248
"2018-06-06 23:15:16.683 +0000",1528326916.683257,0.855918,-0.954901,0.730141,0.436255,0.816257,-0.378690,0.000000,0.000000,0.000000,-1,0.690944,-0.756311,-0.372596,-0.135382,-0.165134,0.085706
"2018-06-06 23:15:16.693 +0000",1528326916.693329,0.838137,-0.953224,0.716447,0.430471,0.815286,-0.387302,0.000000,0.000000,0.000000,-1,0.702596,-0.618932,-0.402342,-0.108724,-0.185861,0.092685
"2018-06-06 23:15:16.703 +0000",1528326916.703401,0.822014,-0.951626,0.702545,0.425124,0.814360,-0.395078,0.000000,0.000000,0.000000,-1,0.706741,-0.424545,-0.418996,-0.067580,-0.187437,0.067304
"2018-06-06 23:15:16.713 +0000",1528326916.713474,0.808902,-0.950257,0.689259,0.420714,0.813565,-0.401388,0.000000,0.000000,0.000000,-1,0.626742,-0.162359,-0.428806,-0.021926,-0.171399,0.140508
"2018-06-06 23:15:16.724 +0000",1528326916.723546,0.798754,-0.949426,0.677109,0.417103,0.813081,-0.406108,0.000000,0.000000,0.000000,-1,0.548854,0.004283,-0.428143,0.008068,-0.157823,0.168757
"2018-06-06 23:15:16.734 +0000",1528326916.733618,0.789652,-0.948795,0.665261,0.413754,0.812714,-0.410248,0.000000,0.000000,0.000000,-1,0.529964,0.064647,-0.437605,0.012211,-0.122452,0.094284
"2018-06-06 23:15:16.744 +0000",1528326916.743691,0.780982,-0.948382,0.653558,0.410417,0.812473,-0.414059,0.000000,0.000000,0.000000,-1,0.514229,0.086581,-0.442884,0.024473,-0.079563,0.089413
"2018-06-06 23:15:16.754 +0000",1528326916.753763,0.772782,-0.947928,0.642161,0.407266,0.812209,-0.417674,0.000000,0.000000,0.000000,-1,0.487896,0.111729,-0.436296,0.069525,-0.071425,0.123667
"2018-06-06 23:15:16.764 +0000",1528326916.763836,0.765158,-0.947518,0.631313,0.404300,0.811970,-0.421007,0.000000,0.000000,0.000000,-1,0.460442,0.115967,-0.417935,0.117459,-0.088627,0.140779
"2018-06-06 23:15:16.774 +0000",1528326916.773908,0.757799,-0.946916,0.621022,0.401527,0.811617,-0.424326,0.000000,0.000000,0.000000,-1,0.454921,0.087248,-0.379283,0.157860,-0.106631,0.134669
"2018-06-06 23:15:16.784 +0000",1528326916.783980,0.750446,-0.946116,0.611406,0.398839,0.811150,-0.427742,0.000000,0.000000,0.000000,-1,0.449416,0.024489,-0.338578,0.179820,-0.110649,0.131386
"2018-06-06 23:15:16.794 +0000",1528326916.794053,0.742724,-0.945129,0.602508,0.396065,0.810572,-0.431399,0.000000,0.000000,0.000000,-1,0.413556,-0.078935,-0.306528,0.160896,-0.113032,0.140856
"2018-06-06 23:15:16.804 +0000",1528326916.804125,0.734040,-0.944179,0.594090,0.392820,0.810016,-0.435393,0.000000,0.000000,0.000000,-1,0.396812,-0.218438,-0.297214,0.110507,-0.135654,0.097106
"2018-06-06 23:15:16.814 +0000",1528326916.814197,0.724311,-0.943298,0.585679,0.389038,0.809499,-0.439728,0.000000,0.000000,0.000000,-1,0.390702,-0.306217,-0.311439,0.068573,-0.156957,0.067231
"2018-06-06 23:15:16.824 +0000",1528326916.824270,0.713685,-0.942564,0.576985,0.384733,0.809067,-0.444286,0.000000,0.000000,0.000000,-1,0.405671,-0.381817,-0.336433,0.054232,-0.148789,0.070934
"2018-06-06 23:15:16.834 +0000",1528326916.834342,0.701328,-0.941490,0.567834,0.379774,0.808436,-0.449670,0.000000,0.000000,0.000000,-1,0.436245,-0.533240,-0.332641,0.058367,-0.122111,0.054605
"2018-06-06 23:15:16.844 +0000",1528326916.844414,0.687238,-0.939853,0.558424,0.374239,0.807472,-0.455999,0.000000,0.000000,0.000000,-1,0.489802,-0.683569,-0.312764,0.079527,-0.097419,0.032399
"2018-06-06 23:15:16.854 +0000",1528326916.854487,0.671732,-0.937164,0.548209,0.368474,0.805882,-0.463444,0.000000,0.000000,0.000000,-1,0.628324,-0.717297,-0.292740,0.119426,-0.059361,0.030049
"2018-06-06 23:15:16.865 +0000",1528326916.864559,0.654966,-0.932512,0.536325,0.362932,0.803119,-0.472525,0.000000,0.000000,0.000000,-1,0.873821,-0.728849,-0.254612,0.172560,-0.001941,-0.002664
"2018-06-06 23:15:16.875 +0000",1528326916.874631,0.635892,-0.924433,0.522518,0.357696,0.798279,-0.484565,0.000000,0.000000,0.000000,-1,1.235382,-0.820544,-0.138462,0.219285,0.077239,-0.079003
"2018-06-06 23:15:16.885 +0000",1528326916.884704,0.614564,-0.911282,0.507024,0.353303,0.790290,-0.500618,0.000000,0.000000,0.000000,-1,1.739172,-0.922063,0.059084,0.247054,0.184976,-0.208275
"2018-06-06 23:15:16.895 +0000",1528326916.894776,0.591827,-0.892230,0.490809,0.350167,0.778474,-0.520924,0.000000,0.000000,0.000000,-1,2.242495,-1.018348,0.316881,0.254920,0.330642,-0.350872
"2018-06-06 23:15:16.905 +0000",1528326916.904849,0.569107,-0.868461,0.475914,0.348118,0.763335,-0.544181,0.000000,0.000000,0.000000,-1,2.566300,-1.159016,0.568507,0.261379,0.507966,-0.427239
"2018-06-06 23:15:16.915 +0000",1528326916.914921,0.546088,-0.841859,0.464089,0.345926,0.745883,-0.569204,0.000000,0.000000,0.000000,-1,2.657238,-1.501161,0.805021,0.293219,0.685743,-0.450754
"2018-06-06 23:15:16.925 +0000",1528326916.924993,0.522376,-0.814406,0.457212,0.342423,0.727318,-0.594773,0.000000,0.000000,0.000000,-1,2.544444,-1.958081,1.051349,0.371109,0.814613,-0.363815
"2018-06-06 23:15:16.935 +0000",1528326916.935066,0.499073,-0.787497,0.455260,0.337718,0.708589,-0.619554,0.000000,0.000000,0.000000,-1,2.340656,-2.226130,1.224214,0.399525,0.888563,-0.245162
"2018-06-06 23:15:16.945 +0000",1528326916.945138,0.477291,-0.762971,0.457023,0.332030,0.691072,-0.642009,0.000000,0.000000,0.000000,-1,2.006486,-2.302933,1.254874,0.301851,0.857512,-0.076863
"2018-06-06 23:15:16.955 +0000",1528326916.955210,0.455334,-0.742424,0.461445,0.324031,0.676076,-0.661759,0.000000,0.000000,0.000000,-1,1.561958,-2.570622,1.181970,0.134465,0.680797,0.195374
"2018-06-06 23:15:16.965 +0000",1528326916.965283,0.429748,-0.726771,0.467557,0.311366,0.664460,-0.679370,0.000000,0.000000,0.000000,-1,1.096220,-3.065263,1.026705,0.017904,0.406097,0.384906
"2018-06-06 23:15:16.975 +0000",1528326916.975355,0.401551,-0.715642,0.472770,0.294961,0.656102,-0.694642,0.000000,0.000000,0.000000,-1,0.791968,-3.105414,0.713196,-0.101876,0.159510,0.448106
"2018-06-06 23:15:16.985 +0000",1528326916.985427,0.375591,-0.707576,0.474840,0.278763,0.649993,-0.706965,0.000000,0.000000,0.000000,-1,0.671164,-2.566426,0.375137,-0.278183,0.010804,0.244868
"2018-06-06 23:15:16.995 +0000",1528326916.995500,0.354949,-0.700841,0.475635,0.265627,0.644861,-0.716657,0.000000,0.000000,0.000000,-1,0.578837,-1.950458,0.285710,-0.346483,0.053778,-0.029818
"2018-06-06 23:15:17.006 +0000",1528326917.005572,0.340140,-0.694934,0.476969,0.256251,0.640335,-0.724090,0.000000,0.000000,0.000000,-1,0.502625,-1.422690,0.297101,-0.319697,0.279099,-0.133789
"2018-06-06 23:15:17.016 +0000",1528326917.015645,0.331827,-0.688918,0.479317,0.251473,0.635703,-0.729824,0.000000,0.000000,0.000000,-1,0.507602,-0.823705,0.395640,-0.181893,0.491556,-0.114124
"2018-06-06 23:15:17.026 +0000",1528326917.025717,0.330636,-0.682699,0.482887,0.251883,0.630889,-0.733849,0.000000,0.000000,0.000000,-1,0.503216,-0.189551,0.478168,0.020029,0.587327,-0.020546
"2018-06-06 23:15:17.036 +0000",1528326917.035789,0.335940,-0.676531,0.487599,0.257050,0.626092,-0.736162,0.000000,0.000000,0.000000,-1,0.444220,0.359882,0.570256,0.001541,0.554603,0.111772
"2018-06-06 23:15:17.046 +0000",1528326917.045862,0.346073,-0.670560,0.493722,0.265759,0.621425,-0.737023,0.000000,0.000000,0.000000,-1,0.387491,0.695237,0.667094,-0.073483,0.410389,0.220269
"2018-06-06 23:15:17.056 +0000",1528326917.055934,0.358054,-0.664799,0.500462,0.275820,0.616901,-0.737127,0.000000,0.000000,0.000000,-1,0.346274,0.785048,0.688962,-0.181277,0.248242,0.293554
"2018-06-06 23:15:17.066 +0000",1528326917.066006,0.369478,-0.659799,0.506714,0.285333,0.612958,-0.736795,0.000000,0.000000,0.000000,-1,0.291264,0.728140,0.610400,-0.312158,0.071078,0.353815
"2018-06-06 23:15:17.076 +0000",1528326917.076079,0.379430,-0.655990,0.511797,0.293514,0.609944,-0.736082,0.000000,0.000000,0.000000,-1,0.171605,0.668016,0.470666,-0.389583,-0.111104,0.421873
"2018-06-06 23:15:17.086 +0000",1528326917.086151,0.388674,-0.654162,0.515661,0.300728,0.608495,-0.734368,0.000000,0.000000,0.000000,-1,0.013168,0.700089,0.308699,-0.405006,-0.269200,0.480721
"2018-06-06 23:15:17.096 +0000",1528326917.096223,0.398310,-0.654305,0.518315,0.307757,0.608608,-0.731356,0.000000,0.000000,0.000000,-1,-0.124383,0.838694,0.149147,-0.389467,-0.374599,0.484332
"2018-06-06 23:15:17.106 +0000",1528326917.106296,0.409080,-0.656161,0.519609,0.315166,0.610080,-0.726961,0.000000,0.000000,0.000000,-1,-0.211514,1.034554,-0.017885,-0.384013,-0.412051,0.446184
"2018-06-06 23:15:17.116 +0000",1528326917.116368,0.420863,-0.659012,0.519518,0.322997,0.612336,-0.721607,0.000000,0.000000,0.000000,-1,-0.269488,1.218277,-0.150598,-0.391845,-0.414307,0.440830
"2018-06-06 23:15:17.126 +0000",1528326917.126441,0.433780,-0.662848,0.518864,0.331301,0.615364,-0.715239,0.000000,0.000000,0.000000,-1,-0.349967,1.353365,-0.218862,-0.344149,-0.356926,0.413069
"2018-06-06 23:15:17.137 +0000",1528326917.136513,0.447968,-0.667970,0.518382,0.340046,0.619393,-0.707616,0.000000,0.000000,0.000000,-1,-0.475786,1.462970,-0.261280,-0.310230,-0.320687,0.426793
"2018-06-06 23:15:17.147 +0000",1528326917.146585,0.463299,-0.674675,0.518487,0.348990,0.624643,-0.698589,0.000000,0.000000,0.000000,-1,-0.617426,1.521971,-0.288751,-0.301139,-0.292658,0.417430
"2018-06-06 23:15:17.157 +0000",1528326917.156658,0.479113,-0.682501,0.519179,0.357728,0.630736,-0.688623,0.000000,0.000000,0.000000,-1,-0.749600,1.524990,-0.311028,-0.302995,-0.258666,0.399378
"2018-06-06 23:15:17.167 +0000",1528326917.166730,0.495023,-0.691602,0.520460,0.365897,0.637772,-0.677766,0.000000,0.000000,0.000000,-1,-0.873246,1.492954,-0.345259,-0.312644,-0.217560,0.388367
"2018-06-06 23:15:17.177 +0000",1528326917.176802,0.511229,-0.701783,0.522223,0.373636,0.645580,-0.666049,0.000000,0.000000,0.000000,-1,-0.973826,1.503796,-0.379418,-0.318445,-0.195461,0.375324
"2018-06-06 23:15:17.187 +0000",1528326917.186875,0.528520,-0.713232,0.524619,0.381344,0.654281,-0.653064,0.000000,0.000000,0.000000,-1,-1.082910,1.576065,-0.408000,-0.316403,-0.207580,0.363528
"2018-06-06 23:15:17.197 +0000",1528326917.196947,0.546919,-0.725521,0.527672,0.389083,0.663525,-0.639021,0.000000,0.000000,0.000000,-1,-1.189886,1.640656,-0.436610,-0.293548,-0.237180,0.337355
"2018-06-06 23:15:17.207 +0000",1528326917.207019,0.565836,-0.738663,0.531127,0.396392,0.673300,-0.624132,0.000000,0.000000,0.000000,-1,-1.255676,1.647271,-0.486995,-0.300856,-0.246954,0.322466
"2018-06-06 23:15:17.217 +0000",1528326917.217092,0.584734,-0.752330,0.534564,0.402998,0.683342,-0.608799,0.000000,0.000000,0.000000,-1,-1.276267,1.644145,-0.540739,-0.152998,-0.320793,0.225178
"2018-06-06 23:15:17.227 +0000",1528326917.227164,0.603800,-0.766378,0.537932,0.409040,0.693530,-0.593044,0.000000,0.000000,0.000000,-1,-1.267589,1.658598,-0.578365,-0.053342,-0.346790,0.187206
"2018-06-06 23:15:17.237 +0000",1528326917.237237,0.623095,-0.780210,0.541613,0.414768,0.703429,-0.577196,0.000000,0.000000,0.000000,-1,-1.279218,1.658525,-0.568657,0.049099,-0.356673,0.204622
"2018-06-06 23:15:17.247 +0000",1528326917.247309,0.643339,-0.794100,0.546823,0.420465,0.713233,-0.560809,0.000000,0.000000,0.000000,-1,-1.350079,1.641586,-0.502930,0.131445,-0.357032,0.232959
"2018-06-06 23:15:17.257 +0000",1528326917.257381,0.665487,-0.808332,0.554878,0.426471,0.723136,-0.543320,0.000000,0.000000,0.000000,-1,-1.503239,1.615429,-0.387561,0.175534,-0.347572,0.248260
"2018-06-06 23:15:17.267 +0000",1528326917.267454,0.690078,-0.823430,0.566956,0.432701,0.733482,-0.524189,0.000000,0.000000,0.000000,-1,-1.718425,1.536347,-0.258221,0.185204,-0.315193,0.227238
"2018-06-06 23:15:17.278 +0000",1528326917.277526,0.716319,-0.839330,0.583100,0.438592,0.744196,-0.503795,0.000000,0.000000,0.000000,-1,-1.964627,1.372877,-0.182838,0.134315,-0.229685,0.184993
"2018-06-06 23:15:17.288 +0000",1528326917.287598,0.743073,-0.856467,0.602879,0.443218,0.755533,-0.482419,0.000000,0.000000,0.000000,-1,-2.183002,1.117507,-0.163719,0.053929,-0.117547,0.149762
"2018-06-06 23:15:17.298 +0000",1528326917.297671,0.769758,-0.874229,0.625463,0.446521,0.767049,-0.460711,0.000000,0.000000,0.000000,-1,-2.303668,0.886587,-0.151207,-0.017993,-0.017400,0.134021
"2018-06-06 23:15:17.308 +0000",1528326917.307743,0.796255,-0.892242,0.650374,0.448621,0.778481,-0.438984,0.000000,0.000000,0.000000,-1,-2.367659,0.650310,-0.132386,-0.100156,0.077308,0.127323
"2018-06-06 23:15:17.318 +0000",1528326917.317815,0.821578,-0.909491,0.677285,0.449692,0.789191,-0.418275,0.000000,0.000000,0.000000,-1,-2.381443,0.332781,-0.076269,-0.177369,0.170755,0.069185
"2018-06-06 23:15:17.328 +0000",1528326917.327888,0.843823,-0.925242,0.705442,0.449540,0.798766,-0.399857,0.000000,0.000000,0.000000,-1,-2.273484,-0.139328,0.011389,-0.245499,0.268693,-0.084838
"2018-06-06 23:15:17.338 +0000",1528326917.337960,0.861202,-0.938502,0.733209,0.448346,0.806674,-0.385050,0.000000,0.000000,0.000000,-1,-2.039613,-0.579305,0.111760,-0.289853,0.345136,-0.293539
"2018-06-06 23:15:17.348 +0000",1528326917.348032,0.875688,-0.949742,0.758987,0.446884,0.813266,-0.372684,0.000000,0.000000,0.000000,-1,-1.781317,-0.621469,0.128256,-0.316681,0.358625,-0.418759
"2018-06-06 23:15:17.358 +0000",1528326917.358105,0.889964,-0.959247,0.780768,0.446132,0.818760,-0.361384,0.000000,0.000000,0.000000,-1,-1.486897,-0.228365,0.037296,-0.318828,0.291668,-0.477346
"2018-06-06 23:15:17.368 +0000",1528326917.368177,0.904880,-0.967362,0.797044,0.446233,0.823391,-0.350574,0.000000,0.000000,0.000000,-1,-1.133547,0.271502,-0.081456,-0.296972,0.196109,-0.519696
"2018-06-06 23:15:17.378 +0000",1528326917.378250,0.919026,-0.973745,0.808007,0.446961,0.826997,-0.341032,0.000000,0.000000,0.000000,-1,-0.789959,0.562489,-0.134103,-0.232010,0.086822,-0.511416
"2018-06-06 23:15:17.388 +0000",1528326917.388322,0.931045,-0.978384,0.815038,0.447944,0.829596,-0.333341,0.000000,0.000000,0.000000,-1,-0.509777,0.611455,-0.106635,-0.171669,-0.008521,-0.404269
"2018-06-06 23:15:17.398 +0000",1528326917.398394,0.940407,-0.981255,0.819684,0.449119,0.831196,-0.327727,0.000000,0.000000,0.000000,-1,-0.338778,0.511869,-0.067518,-0.156166,-0.028355,-0.263169
"2018-06-06 23:15:17.408 +0000",1528326917.408467,0.946237,-0.983340,0.823186,0.449616,0.832353,-0.324089,0.000000,0.000000,0.000000,-1,-0.269252,0.192557,-0.054623,-0.187515,0.102583,-0.212532
"2018-06-06 23:15:17.419 +0000",1528326917.418539,0.947021,-0.985511,0.827383,0.448402,0.833555,-0.322680,0.000000,0.000000,0.000000,-1,-0.331861,-0.445527,-0.029444,-0.125312,0.370944,-0.218549
"2018-06-06 23:15:17.429 +0000",1528326917.428611,0.942018,-0.987400,0.832926,0.445507,0.834597,-0.323993,0.000000,0.000000,0.000000,-1,-0.330989,-1.095839,0.074075,0.025684,0.605375,-0.164960
"2018-06-06 23:15:17.439 +0000",1528326917.438684,0.935285,-0.987782,0.837480,0.443060,0.834807,-0.326796,0.000000,0.000000,0.000000,-1,-0.174969,-0.929818,0.116151,0.128626,0.736619,0.159865
"2018-06-06 23:15:17.449 +0000",1528326917.448756,0.934343,-0.987490,0.838177,0.442948,0.834646,-0.327358,0.000000,0.000000,0.000000,-1,0.033771,0.133804,0.020883,0.189865,0.707072,0.548336
"2018-06-06 23:15:17.459 +0000",1528326917.458828,0.939666,-0.986585,0.837141,0.445293,0.834147,-0.325442,0.000000,0.000000,0.000000,-1,0.106465,0.691510,0.059987,0.337376,0.380010,0.611925
"2018-06-06 23:15:17.469 +0000",1528326917.468901,0.946395,-0.984821,0.838354,0.448666,0.833173,-0.323297,0.000000,0.000000,0.000000,-1,0.049521,0.481971,0.252048,0.308948,0.027697,0.509836
"2018-06-06 23:15:17.479 +0000",1528326917.478973,0.952625,-0.980692,0.842290,0.453472,0.830882,-0.322487,0.000000,0.000000,0.000000,-1,0.081209,0.259145,0.529919,0.098012,-0.090907,0.217217
"2018-06-06 23:15:17.489 +0000",1528326917.489046,0.959532,-0.974586,0.847558,0.459834,0.827470,-0.322252,0.000000,0.000000,0.000000,-1,0.100009,0.216830,0.685722,0.095113,0.270126,-0.195600
"2018-06-06 23:15:17.499 +0000",1528326917.499118,0.966233,-0.970170,0.856688,0.464985,0.824982,-0.321238,0.000000,0.000000,0.000000,-1,-0.290964,-0.191304,0.631648,0.298656,1.046478,-0.304753
"2018-06-06 23:15:17.509 +0000",1528326917.509190,0.974757,-0.969254,0.870355,0.468332,0.824464,-0.317687,0.000000,0.000000,0.000000,-1,-0.599678,-0.250854,0.491272,0.521476,1.712600,-0.269425
"2018-06-06 23:15:17.519 +0000",1528326917.519263,0.984298,-0.967090,0.878409,0.472826,0.823237,-0.314191,0.000000,0.000000,0.000000,-1,-0.067361,0.546812,0.419229,0.872511,1.649557,-0.652591
"2018-06-06 23:15:17.529 +0000",1528326917.529335,0.991731,-0.960601,0.871823,0.479609,0.819536,-0.313585,0.000000,0.000000,0.000000,-1,0.902176,1.463369,0.295976,0.919576,0.715926,-0.592635
"2018-06-06 23:15:17.539 +0000",1528326917.539407,0.993447,-0.952497,0.854558,0.485695,0.814866,-0.316376,0.000000,0.000000,0.000000,-1,1.313430,1.534593,0.075810,0.608375,0.011032,-0.049912
"2018-06-06 23:15:17.549 +0000",1528326917.549480,0.992207,-0.946658,0.838238,0.489278,0.811467,-0.319574,0.000000,0.000000,0.000000,-1,1.044615,1.046795,-0.009969,0.319850,-0.182637,0.262048
"2018-06-06 23:15:17.560 +0000",1528326917.559552,0.991973,-0.941750,0.829548,0.492531,0.808589,-0.321863,0.000000,0.000000,0.000000,-1,0.570817,0.568173,0.198399,0.249153,-0.142787,0.305033
"2018-06-06 23:15:17.570 +0000",1528326917.569624,0.995865,-0.936355,0.829220,0.497434,0.805403,-0.322311,0.000000,0.000000,0.000000,-1,0.242951,0.400177,0.513825,0.242846,-0.168776,0.275391
"2018-06-06 23:15:17.580 +0000",1528326917.579697,1.003778,-0.930149,0.832278,0.504176,0.801709,-0.321044,0.000000,0.000000,0.000000,-1,0.176742,0.609182,0.629678,0.135091,-0.215924,0.221495
"2018-06-06 23:15:17.590 +0000",1528326917.589769,1.014286,-0.924394,0.835071,0.511431,0.798256,-0.318160,0.000000,0.000000,0.000000,-1,0.198993,0.869656,0.572300,-0.041689,-0.238960,0.227523
"2018-06-06 23:15:17.600 +0000",1528326917.599842,1.024986,-0.919116,0.836948,0.518399,0.795066,-0.314853,0.000000,0.000000,0.000000,-1,0.161823,0.905050,0.484285,-0.169018,-0.229453,0.286395
"2018-06-06 23:15:17.610 +0000",1528326917.609914,1.034980,-0.915383,0.840417,0.524068,0.792796,-0.311169,0.000000,0.000000,0.000000,-1,-0.053669,0.635836,0.403322,-0.234334,-0.151347,0.366833
"2018-06-06 23:15:17.620 +0000",1528326917.619986,1.043672,-0.914157,0.847224,0.527593,0.792049,-0.307091,0.000000,0.000000,0.000000,-1,-0.378979,0.223787,0.279170,-0.281148,-0.016536,0.397285
"2018-06-06 23:15:17.630 +0000",1528326917.630059,1.051960,-0.916137,0.857688,0.528757,0.793256,-0.301929,0.000000,0.000000,0.000000,-1,-0.691610,-0.061875,0.129540,-0.304224,0.100482,0.353870
"2018-06-06 23:15:17.640 +0000",1528326917.640131,1.061580,-0.919624,0.870236,0.529218,0.795374,-0.295479,0.000000,0.000000,0.000000,-1,-0.861299,0.000512,0.061269,-0.247907,0.110510,0.332130
"2018-06-06 23:15:17.650 +0000",1528326917.650203,1.073750,-0.923598,0.883698,0.529993,0.797776,-0.287507,0.000000,0.000000,0.000000,-1,-0.902246,0.188222,0.036093,-0.165430,0.026503,0.318360
"2018-06-06 23:15:17.660 +0000",1528326917.660276,1.086884,-0.928023,0.896838,0.530593,0.800436,-0.278876,0.000000,0.000000,0.000000,-1,-0.895433,0.274191,-0.041119,-0.155364,-0.051535,0.282828
"2018-06-06 23:15:17.670 +0000",1528326917.670348,1.100120,-0.933576,0.909691,0.530267,0.803753,-0.269809,0.000000,0.000000,0.000000,-1,-0.907255,0.276781,-0.143271,-0.197916,-0.094524,0.257724
"2018-06-06 23:15:17.680 +0000",1528326917.680420,1.112801,-0.939568,0.922115,0.529317,0.807303,-0.260929,0.000000,0.000000,0.000000,-1,-0.923442,0.260598,-0.221803,-0.259938,-0.118781,0.220570
"2018-06-06 23:15:17.690 +0000",1528326917.690493,1.125167,-0.946047,0.934164,0.527772,0.811110,-0.252104,0.000000,0.000000,0.000000,-1,-0.906137,0.265313,-0.287443,-0.297792,-0.128905,0.126570
"2018-06-06 23:15:17.701 +0000",1528326917.700565,1.137159,-0.952640,0.945243,0.525893,0.814948,-0.243505,0.000000,0.000000,0.000000,-1,-0.837592,0.308487,-0.328349,-0.292342,-0.105262,0.004521
"2018-06-06 23:15:17.711 +0000",1528326917.710637,1.148088,-0.959046,0.954511,0.523751,0.818644,-0.235596,0.000000,0.000000,0.000000,-1,-0.675779,0.324348,-0.338354,-0.238991,-0.036295,-0.118545
"2018-06-06 23:15:17.721 +0000",1528326917.720710,1.155189,-0.964116,0.959923,0.521607,0.821545,-0.230192,0.000000,0.000000,0.000000,-1,-0.415254,0.235031,-0.332757,-0.152100,0.059589,-0.233278
"2018-06-06 23:15:17.731 +0000",1528326917.730782,1.156978,-0.968027,0.960691,0.519072,0.823769,-0.227965,0.000000,0.000000,0.000000,-1,-0.122007,0.073404,-0.339277,-0.065245,0.124168,-0.298432
"2018-06-06 23:15:17.741 +0000",1528326917.740855,1.153032,-0.970892,0.956409,0.516009,0.825390,-0.229053,0.000000,0.000000,0.000000,-1,0.181863,-0.074949,-0.362993,-0.004626,0.117359,-0.327923
"2018-06-06 23:15:17.751 +0000",1528326917.750927,1.143212,-0.972801,0.946899,0.512300,0.826466,-0.233455,0.000000,0.000000,0.000000,-1,0.516083,-0.255129,-0.368585,0.036711,0.051647,-0.387196
"2018-06-06 23:15:17.761 +0000",1528326917.760999,1.126317,-0.972830,0.931827,0.508261,0.826482,-0.242067,0.000000,0.000000,0.000000,-1,0.840753,-0.505682,-0.352847,0.062311,-0.019582,-0.401854
"2018-06-06 23:15:17.771 +0000",1528326917.771072,1.103508,-0.971316,0.912854,0.503725,0.825629,-0.254159,0.000000,0.000000,0.000000,-1,1.069759,-0.774121,-0.324034,0.071394,-0.096839,-0.329322
"2018-06-06 23:15:17.781 +0000",1528326917.781144,1.076972,-0.968446,0.892072,0.498888,0.824006,-0.268557,0.000000,0.000000,0.000000,-1,1.190368,-0.978174,-0.275424,0.081648,-0.191941,-0.232725
"2018-06-06 23:15:17.791 +0000",1528326917.791216,1.048470,-0.964919,0.871104,0.493548,0.822003,-0.284113,0.000000,0.000000,0.000000,-1,1.232325,-1.174691,-0.243823,0.064527,-0.280880,-0.116582
"2018-06-06 23:15:17.801 +0000",1528326917.801289,1.018388,-0.960489,0.850508,0.487875,0.819472,-0.300737,0.000000,0.000000,0.000000,-1,1.219630,-1.345019,-0.210944,0.048350,-0.347487,-0.016020
"2018-06-06 23:15:17.811 +0000",1528326917.811361,0.988989,-0.955899,0.831968,0.481961,0.816833,-0.317012,0.000000,0.000000,0.000000,-1,1.104955,-1.425619,-0.176495,0.040302,-0.406432,0.106105
"2018-06-06 23:15:17.821 +0000",1528326917.821433,0.961405,-0.951810,0.815716,0.475769,0.814467,-0.332093,0.000000,0.000000,0.000000,-1,0.968548,-1.414941,-0.195513,-0.006028,-0.439482,0.170625
"2018-06-06 23:15:17.832 +0000",1528326917.831506,0.936259,-0.948787,0.801063,0.469250,0.812709,-0.345409,0.000000,0.000000,0.000000,-1,0.849081,-1.271242,-0.248604,-0.077313,-0.411189,0.194347
"2018-06-06 23:15:17.842 +0000",1528326917.841578,0.914755,-0.946499,0.787928,0.463186,0.811374,-0.356552,0.000000,0.000000,0.000000,-1,0.704154,-1.004738,-0.284069,-0.108542,-0.341007,0.227371
"2018-06-06 23:15:17.852 +0000",1528326917.851650,0.897738,-0.945448,0.776514,0.457719,0.810759,-0.364914,0.000000,0.000000,0.000000,-1,0.550956,-0.694252,-0.341975,-0.123078,-0.256667,0.267166
"2018-06-06 23:15:17.862 +0000",1528326917.861723,0.883721,-0.945346,0.765490,0.452623,0.810700,-0.371346,0.000000,0.000000,0.000000,-1,0.499797,-0.450395,-0.412141,-0.141084,-0.174469,0.216713
"2018-06-06 23:15:17.872 +0000",1528326917.871795,0.871406,-0.945652,0.753822,0.447826,0.810879,-0.376732,0.000000,0.000000,0.000000,-1,0.532472,-0.227279,-0.454592,-0.115917,-0.095653,0.129265
"2018-06-06 23:15:17.882 +0000",1528326917.881867,0.860820,-0.945392,0.741153,0.443973,0.810726,-0.381589,0.000000,0.000000,0.000000,-1,0.591049,0.031960,-0.455048,-0.058459,-0.029888,0.114987
"2018-06-06 23:15:17.892 +0000",1528326917.891940,0.852195,-0.944838,0.728198,0.441003,0.810402,-0.385700,0.000000,0.000000,0.000000,-1,0.604487,0.229580,-0.451277,0.000022,-0.001000,0.128421
"2018-06-06 23:15:17.902 +0000",1528326917.902012,0.845345,-0.944492,0.715704,0.438560,0.810199,-0.388898,0.000000,0.000000,0.000000,-1,0.551876,0.351298,-0.454029,0.037544,-0.001117,0.144040
"2018-06-06 23:15:17.912 +0000",1528326917.912085,0.840118,-0.944659,0.704135,0.436421,0.810297,-0.391094,0.000000,0.000000,0.000000,-1,0.498190,0.421378,-0.447249,0.061305,-0.028391,0.148830
"2018-06-06 23:15:17.922 +0000",1528326917.922157,0.835246,-0.944564,0.692967,0.434567,0.810242,-0.393267,0.000000,0.000000,0.000000,-1,0.490642,0.401480,-0.419323,0.079639,-0.066666,0.111071
"2018-06-06 23:15:17.932 +0000",1528326917.932229,0.829417,-0.944012,0.682140,0.432597,0.809918,-0.396096,0.000000,0.000000,0.000000,-1,0.508278,0.245445,-0.371413,0.100972,-0.110226,0.058297
"2018-06-06 23:15:17.942 +0000",1528326917.942302,0.821804,-0.942851,0.671685,0.430258,0.809236,-0.400017,0.000000,0.000000,0.000000,-1,0.532198,0.031206,-0.314006,0.129526,-0.151949,0.030205
"2018-06-06 23:15:17.952 +0000",1528326917.952374,0.812732,-0.941283,0.662025,0.427532,0.808314,-0.404776,0.000000,0.000000,0.000000,-1,0.533995,-0.184229,-0.247947,0.162327,-0.187495,-0.001383
"2018-06-06 23:15:17.962 +0000",1528326917.962446,0.801944,-0.939119,0.653178,0.424397,0.807038,-0.410580,0.000000,0.000000,0.000000,-1,0.519082,-0.420527,-0.191591,0.191372,-0.196717,-0.060230
"2018-06-06 23:15:17.973 +0000",1528326917.972519,0.789603,-0.936852,0.644919,0.420595,0.805697,-0.417073,0.000000,0.000000,0.000000,-1,0.503387,-0.610551,-0.175973,0.193723,-0.162021,-0.025173
"2018-06-06 23:15:17.983 +0000",1528326917.982591,0.775039,-0.934196,0.636835,0.415973,0.804121,-0.424681,0.000000,0.000000,0.000000,-1,0.531697,-0.874100,-0.137006,0.175489,-0.118971,0.025878
"2018-06-06 23:15:17.993 +0000",1528326917.992663,0.757595,-0.930566,0.629180,0.410505,0.801958,-0.433990,0.000000,0.000000,0.000000,-1,0.614294,-1.205776,-0.046730,0.157809,-0.078249,-0.019974
"2018-06-06 23:15:18.003 +0000",1528326918.002736,0.737805,-0.924960,0.621141,0.404854,0.798597,-0.445348,0.000000,0.000000,0.000000,-1,0.781699,-1.342957,0.054674,0.143791,-0.004636,-0.030482
"2018-06-06 23:15:18.013 +0000",1528326918.012808,0.718265,-0.916739,0.612413,0.400382,0.793622,-0.458102,0.000000,0.000000,0.000000,-1,1.021078,-1.202330,0.186839,0.152276,0.121082,-0.035459
"2018-06-06 23:15:18.023 +0000",1528326918.022880,0.700568,-0.905366,0.603252,0.398006,0.786651,-0.471985,0.000000,0.000000,0.000000,-1,1.288450,-0.982744,0.356818,0.187901,0.295380,-0.068863
"2018-06-06 23:15:18.033 +0000",1528326918.032953,0.684070,-0.890756,0.593956,0.397386,0.777547,-0.487342,0.000000,0.000000,0.000000,-1,1.584274,-0.909108,0.532760,0.224852,0.469080,-0.157082
"2018-06-06 23:15:18.043 +0000",1528326918.043025,0.666571,-0.871809,0.583729,0.397836,0.765494,-0.505711,0.000000,0.000000,0.000000,-1,1.967336,-0.997751,0.720939,0.277457,0.605065,-0.302334
"2018-06-06 23:15:18.053 +0000",1528326918.053098,0.646262,-0.848953,0.573805,0.397919,0.750589,-0.527518,0.000000,0.000000,0.000000,-1,2.247565,-1.369997,0.931116,0.379943,0.699774,-0.431131
"2018-06-06 23:15:18.063 +0000",1528326918.063170,0.624135,-0.824117,0.566733,0.396924,0.733948,-0.551153,0.000000,0.000000,0.000000,-1,2.243233,-1.779235,1.135384,0.477969,0.801590,-0.412485
"2018-06-06 23:15:18.073 +0000",1528326918.073242,0.601807,-0.799687,0.564539,0.394555,0.717138,-0.574489,0.000000,0.000000,0.000000,-1,2.042565,-2.160421,1.326199,0.528022,0.881083,-0.264408
"2018-06-06 23:15:18.083 +0000",1528326918.083315,0.578595,-0.776459,0.566411,0.390121,0.700758,-0.597280,0.000000,0.000000,0.000000,-1,1.772397,-2.521554,1.401062,0.496430,0.832201,-0.094920
"2018-06-06 23:15:18.093 +0000",1528326918.093387,0.554867,-0.755957,0.570716,0.383329,0.685985,-0.618451,0.000000,0.000000,0.000000,-1,1.476897,-2.672469,1.329232,0.329104,0.635243,0.112104
"2018-06-06 23:15:18.103 +0000",1528326918.103459,0.532179,-0.738879,0.576073,0.375091,0.673460,-0.636991,0.000000,0.000000,0.000000,-1,1.176630,-2.573811,1.163482,0.082566,0.386858,0.237729
"2018-06-06 23:15:18.114 +0000",1528326918.113532,0.512354,-0.725687,0.581026,0.366713,0.663650,-0.651989,0.000000,0.000000,0.000000,-1,0.936619,-2.208975,0.914467,-0.186186,0.263627,0.185222
"2018-06-06 23:15:18.124 +0000",1528326918.123604,0.495378,-0.715317,0.584968,0.358845,0.655857,-0.664139,0.000000,0.000000,0.000000,-1,0.697362,-1.861872,0.706274,-0.390812,0.268948,0.148316
"2018-06-06 23:15:18.134 +0000",1528326918.133676,0.481018,-0.707342,0.588008,0.351680,0.649815,-0.673840,0.000000,0.000000,0.000000,-1,0.579714,-1.547507,0.532128,-0.492916,0.312785,0.156719
"2018-06-06 23:15:18.144 +0000",1528326918.143749,0.468456,-0.699521,0.589516,0.345472,0.643851,-0.682718,0.000000,0.000000,0.000000,-1,0.665236,-1.272442,0.440227,-0.485655,0.363061,0.031793
"2018-06-06 23:15:18.154 +0000",1528326918.153821,0.459874,-0.691441,0.590282,0.341898,0.637648,-0.690297,0.000000,0.000000,0.000000,-1,0.748941,-0.760559,0.418936,-0.296992,0.406267,-0.016292
"2018-06-06 23:15:18.164 +0000",1528326918.163893,0.458210,-0.682762,0.590890,0.343184,0.630938,-0.695802,0.000000,0.000000,0.000000,-1,0.747123,-0.011915,0.426496,-0.063933,0.414075,0.089296
"2018-06-06 23:15:18.174 +0000",1528326918.173966,0.463953,-0.674363,0.592495,0.349533,0.624400,-0.698534,0.000000,0.000000,0.000000,-1,0.663996,0.602268,0.506995,0.091522,0.363271,0.172060
"2018-06-06 23:15:18.184 +0000",1528326918.184038,0.474016,-0.666561,0.595915,0.358758,0.618287,-0.699295,0.000000,0.000000,0.000000,-1,0.539038,0.815541,0.613315,0.129126,0.281982,0.199386
