timestamp,timeIntervalSince1970,attitude.roll,attitude.pitch,attitude.yaw,gravity.x,gravity.y,gravity.z,magneticField.x,magneticField.y,magneticField.z,magneticField.accuracy,rotationRate.x,rotationRate.y,rotationRate.z,userAcceleration.x,userAcceleration.y,userAcceleration.z
"2018-06-07 00:14:51.948 +0000",1528330491.947996,-0.209335,0.179979,0.038012,-0.204453,-0.179009,-0.962369,0.000000,0.000000,0.000000,-1,-0.215270,-0.347051,0.349168,0.016251,0.058022,-0.255511
"2018-06-07 00:14:51.958 +0000",1528330491.958069,-0.213077,0.179006,0.042410,-0.208090,-0.178051,-0.961767,0.000000,0.000000,0.000000,-1,0.057877,-0.266652,0.468173,0.019277,0.112545,-0.221369
"2018-06-07 00:14:51.968 +0000",1528330491.968143,-0.215391,0.179349,0.048379,-0.210301,-0.178389,-0.961224,0.000000,0.000000,0.000000,-1,0.175400,-0.068162,0.595407,0.029546,0.146559,-0.133625
"2018-06-07 00:14:51.978 +0000",1528330491.978216,-0.215379,0.179349,0.055747,-0.210290,-0.178389,-0.961226,0.000000,0.000000,0.000000,-1,0.136219,0.201174,0.740417,0.031259,0.126341,-0.037248
"2018-06-07 00:14:51.988 +0000",1528330491.988289,-0.212812,0.178001,0.064234,-0.207872,-0.177062,-0.961997,0.000000,0.000000,0.000000,-1,0.014201,0.461568,0.868380,0.044603,0.082061,0.040259
"2018-06-07 00:14:51.998 +0000",1528330491.998363,-0.209113,0.175156,0.073265,-0.204416,-0.174262,-0.963248,0.000000,0.000000,0.000000,-1,-0.126050,0.530070,0.932363,0.027048,0.045645,0.058020
"2018-06-07 00:14:52.008 +0000",1528330492.008436,-0.204925,0.170700,0.082050,-0.200537,-0.169872,-0.964846,0.000000,0.000000,0.000000,-1,-0.309866,0.576783,0.927542,-0.001032,0.023754,0.111987
"2018-06-07 00:14:52.019 +0000",1528330492.018509,-0.200671,0.164004,0.089867,-0.196653,-0.163270,-0.966784,0.000000,0.000000,0.000000,-1,-0.561441,0.545606,0.865640,-0.027469,-0.002075,0.156328
"2018-06-07 00:14:52.029 +0000",1528330492.028583,-0.196104,0.155038,0.096317,-0.192512,-0.154418,-0.969069,0.000000,0.000000,0.000000,-1,-0.805419,0.559615,0.766204,-0.068230,-0.015550,0.169279
"2018-06-07 00:14:52.039 +0000",1528330492.038656,-0.191188,0.144381,0.101252,-0.188048,-0.143880,-0.971564,0.000000,0.000000,0.000000,-1,-0.984113,0.559617,0.647217,-0.095338,0.007710,0.140250
"2018-06-07 00:14:52.049 +0000",1528330492.048729,-0.185976,0.132942,0.104659,-0.183274,-0.132550,-0.974085,0.000000,0.000000,0.000000,-1,-1.067034,0.567678,0.502218,-0.112288,0.042417,0.074442
"2018-06-07 00:14:52.059 +0000",1528330492.058803,-0.180745,0.121762,0.106661,-0.178432,-0.121461,-0.976427,0.000000,0.000000,0.000000,-1,-1.042824,0.529905,0.363295,-0.104573,0.065752,0.010011
"2018-06-07 00:14:52.069 +0000",1528330492.068876,-0.176363,0.111829,0.107931,-0.174354,-0.111596,-0.978339,0.000000,0.000000,0.000000,-1,-0.905539,0.415366,0.280898,-0.083977,0.070763,-0.063806
"2018-06-07 00:14:52.079 +0000",1528330492.078950,-0.173367,0.104021,0.109112,-0.171567,-0.103834,-0.979685,0.000000,0.000000,0.000000,-1,-0.684543,0.278920,0.242348,-0.089541,0.071592,-0.130407
"2018-06-07 00:14:52.089 +0000",1528330492.089023,-0.170817,0.098500,0.110423,-0.169163,-0.098340,-0.980670,0.000000,0.000000,0.000000,-1,-0.466905,0.278546,0.213881,-0.122478,0.095044,-0.150831
"2018-06-07 00:14:52.099 +0000",1528330492.099096,-0.166655,0.094485,0.111872,-0.165144,-0.094345,-0.981747,0.000000,0.000000,0.000000,-1,-0.348390,0.492958,0.209931,-0.137559,0.122177,-0.092823
"2018-06-07 00:14:52.109 +0000",1528330492.109170,-0.159440,0.090809,0.113561,-0.158111,-0.090684,-0.983248,0.000000,0.000000,0.000000,-1,-0.335216,0.817841,0.232359,-0.106980,0.113328,-0.038511
"2018-06-07 00:14:52.119 +0000",1528330492.119243,-0.148092,0.086611,0.115631,-0.146999,-0.086503,-0.985347,0.000000,0.000000,0.000000,-1,-0.402176,1.264248,0.280064,-0.065266,0.102250,0.001155
"2018-06-07 00:14:52.129 +0000",1528330492.129316,-0.131553,0.081139,0.117891,-0.130743,-0.081050,-0.988098,0.000000,0.000000,0.000000,-1,-0.550922,1.793978,0.299156,-0.044321,0.105312,0.060882
"2018-06-07 00:14:52.139 +0000",1528330492.139390,-0.109747,0.073491,0.119678,-0.109231,-0.073425,-0.991301,0.000000,0.000000,0.000000,-1,-0.798903,2.294075,0.250623,-0.045340,0.110519,0.101668
"2018-06-07 00:14:52.149 +0000",1528330492.149463,-0.083162,0.063029,0.120519,-0.082901,-0.062987,-0.994565,0.000000,0.000000,0.000000,-1,-1.103261,2.774432,0.160212,-0.052139,0.128646,0.076734
"2018-06-07 00:14:52.160 +0000",1528330492.159536,-0.049881,0.049635,0.120852,-0.049799,-0.049614,-0.997526,0.000000,0.000000,0.000000,-1,-1.389326,3.511517,0.117834,-0.047110,0.184960,0.037184
"2018-06-07 00:14:52.170 +0000",1528330492.169610,-0.006831,0.034392,0.121961,-0.006827,-0.034386,-0.999385,0.000000,0.000000,0.000000,-1,-1.537793,4.555947,0.173919,0.046546,0.221336,-0.016362
"2018-06-07 00:14:52.180 +0000",1528330492.179683,0.047095,0.018311,0.125362,0.047070,-0.018310,-0.998724,0.000000,0.000000,0.000000,-1,-1.623175,5.603312,0.357869,0.185810,0.216705,-0.063364
"2018-06-07 00:14:52.190 +0000",1528330492.189756,0.109573,0.002355,0.131202,0.109354,-0.002355,-0.994000,0.000000,0.000000,0.000000,-1,-1.623825,6.384400,0.482767,0.199316,0.173269,-0.056644
"2018-06-07 00:14:52.200 +0000",1528330492.199830,0.176280,-0.013414,0.138490,0.175353,0.013414,-0.984414,0.000000,0.000000,0.000000,-1,-1.659761,6.649975,0.479319,0.068727,0.139922,-0.064353
"2018-06-07 00:14:52.210 +0000",1528330492.209903,0.243567,-0.029137,0.145465,0.241064,0.029133,-0.970072,0.000000,0.000000,0.000000,-1,-1.673128,6.674831,0.301940,0.009699,0.207989,-0.135427
"2018-06-07 00:14:52.220 +0000",1528330492.219976,0.312635,-0.044862,0.151641,0.307258,0.044847,-0.950569,0.000000,0.000000,0.000000,-1,-1.664632,6.901737,0.125100,0.066872,0.285216,-0.099922
"2018-06-07 00:14:52.230 +0000",1528330492.230050,0.375116,-0.059038,0.158292,0.365742,0.059004,-0.928844,0.000000,0.000000,0.000000,-1,-1.467336,5.569383,0.174554,0.169231,0.250917,-0.098698
"2018-06-07 00:14:52.240 +0000",1528330492.240123,0.412172,-0.070040,0.165134,0.399618,0.069983,-0.914007,0.000000,0.000000,0.000000,-1,-1.276136,3.188785,0.189780,0.207087,0.200449,0.041570
"2018-06-07 00:14:52.250 +0000",1528330492.250196,0.435892,-0.085393,0.173346,0.420680,0.085290,-0.903191,0.000000,0.000000,0.000000,-1,-1.917292,2.115923,0.107454,0.099827,0.249503,0.361290
"2018-06-07 00:14:52.260 +0000",1528330492.260270,0.461729,-0.106749,0.187542,0.442961,0.106547,-0.890188,0.000000,0.000000,0.000000,-1,-2.711276,2.571139,0.452651,0.076739,0.301763,0.566854
"2018-06-07 00:14:52.270 +0000",1528330492.270343,0.490233,-0.131646,0.208945,0.466758,0.131266,-0.874589,0.000000,0.000000,0.000000,-1,-3.206847,2.467096,0.851472,0.170449,0.375417,0.398622
"2018-06-07 00:14:52.280 +0000",1528330492.280416,0.514569,-0.154458,0.233705,0.486300,0.153844,-0.860142,0.000000,0.000000,0.000000,-1,-3.098966,1.922980,1.094890,0.134214,0.302592,0.000828
"2018-06-07 00:14:52.290 +0000",1528330492.290490,0.534296,-0.172714,0.258528,0.501659,0.171857,-0.847823,0.000000,0.000000,0.000000,-1,-2.664689,1.453792,1.225910,0.031300,0.218677,-0.227174
"2018-06-07 00:14:52.301 +0000",1528330492.300563,0.551293,-0.185440,0.282214,0.514809,0.184379,-0.837243,0.000000,0.000000,0.000000,-1,-2.154054,1.219688,1.369272,0.043190,0.210000,-0.298118
"2018-06-07 00:14:52.311 +0000",1528330492.310636,0.567745,-0.193732,0.305462,0.527673,0.192522,-0.827343,0.000000,0.000000,0.000000,-1,-1.798182,1.194739,1.534034,0.063270,0.156675,-0.195057
"2018-06-07 00:14:52.321 +0000",1528330492.320710,0.585969,-0.198624,0.328444,0.542134,0.197321,-0.816796,0.000000,0.000000,0.000000,-1,-1.579645,1.428756,1.633173,0.013423,0.093802,-0.078102
"2018-06-07 00:14:52.331 +0000",1528330492.330783,0.607906,-0.201542,0.351460,0.559589,0.200180,-0.804231,0.000000,0.000000,0.000000,-1,-1.489235,1.841455,1.708386,0.010098,0.101639,0.000597
"2018-06-07 00:14:52.341 +0000",1528330492.340856,0.636030,-0.204203,0.375911,0.581665,0.202787,-0.787746,0.000000,0.000000,0.000000,-1,-1.660753,2.477271,1.807437,0.031830,0.106768,0.179240
"2018-06-07 00:14:52.351 +0000",1528330492.350930,0.674015,-0.208649,0.404091,0.610592,0.207139,-0.764376,0.000000,0.000000,0.000000,-1,-2.106085,3.415070,1.963926,0.061619,0.014434,0.382220
"2018-06-07 00:14:52.361 +0000",1528330492.361003,0.721924,-0.215460,0.437296,0.645551,0.213796,-0.733182,0.000000,0.000000,0.000000,-1,-2.762916,4.255991,2.045323,0.090564,-0.067129,0.562863
"2018-06-07 00:14:52.371 +0000",1528330492.371076,0.778784,-0.225742,0.475655,0.684593,0.223830,-0.693709,0.000000,0.000000,0.000000,-1,-3.444972,5.009541,2.002824,0.056221,-0.003554,0.585616
"2018-06-07 00:14:52.381 +0000",1528330492.381150,0.844594,-0.238545,0.518246,0.726528,0.236289,-0.645232,0.000000,0.000000,0.000000,-1,-3.981391,5.727625,1.874913,-0.046536,0.095620,0.453215
"2018-06-07 00:14:52.391 +0000",1528330492.391223,0.916235,-0.252097,0.563557,0.768239,0.249435,-0.589568,0.000000,0.000000,0.000000,-1,-4.219037,6.008565,1.738592,-0.034627,0.136918,0.174681
"2018-06-07 00:14:52.401 +0000",1528330492.401296,0.986083,-0.262445,0.608535,0.805317,0.259443,-0.533060,0.000000,0.000000,0.000000,-1,-4.044783,5.681163,1.655491,0.049465,0.107714,-0.152944
"2018-06-07 00:14:52.411 +0000",1528330492.411370,1.048490,-0.268177,0.650577,0.835692,0.264974,-0.481048,0.000000,0.000000,0.000000,-1,-3.607935,4.871229,1.630622,0.082186,0.067682,-0.365952
"2018-06-07 00:14:52.421 +0000",1528330492.421443,1.099998,-0.268789,0.689281,0.859206,0.265564,-0.437311,0.000000,0.000000,0.000000,-1,-3.198261,3.837757,1.752528,0.112642,0.020263,-0.357138
"2018-06-07 00:14:52.432 +0000",1528330492.431516,1.143508,-0.264585,0.726512,0.878423,0.261509,-0.399983,0.000000,0.000000,0.000000,-1,-2.977929,3.203924,1.998653,0.134578,-0.041904,-0.167598
"2018-06-07 00:14:52.442 +0000",1528330492.441590,1.183113,-0.255453,0.763431,0.895745,0.252683,-0.365777,0.000000,0.000000,0.000000,-1,-2.871894,2.926265,2.312767,0.126228,-0.105222,-0.092261
"2018-06-07 00:14:52.452 +0000",1528330492.451663,1.219338,-0.242654,0.800253,0.911366,0.240280,-0.334182,0.000000,0.000000,0.000000,-1,-2.841339,2.591934,2.478449,0.051128,-0.105957,-0.161210
"2018-06-07 00:14:52.462 +0000",1528330492.461736,1.248817,-0.230881,0.835385,0.923440,0.228835,-0.308048,0.000000,0.000000,0.000000,-1,-2.796781,1.927327,2.092409,-0.080498,0.055268,-0.303463
"2018-06-07 00:14:52.472 +0000",1528330492.471810,1.270313,-0.223738,0.866886,0.931385,0.221876,-0.288605,0.000000,0.000000,0.000000,-1,-2.629463,1.267433,1.449021,-0.225224,0.114626,-0.360061
"2018-06-07 00:14:52.482 +0000",1528330492.481883,1.286372,-0.221170,0.894080,0.936443,0.219372,-0.273770,0.000000,0.000000,0.000000,-1,-2.385256,0.949978,0.872069,-0.273006,0.005405,-0.304569
"2018-06-07 00:14:52.492 +0000",1528330492.491956,1.301365,-0.221173,0.917351,0.940442,0.219375,-0.259699,0.000000,0.000000,0.000000,-1,-2.095098,0.993813,0.558519,-0.182111,-0.118239,-0.280020
"2018-06-07 00:14:52.502 +0000",1528330492.502030,1.315026,-0.220858,0.937437,0.943969,0.219067,-0.246845,0.000000,0.000000,0.000000,-1,-1.790288,0.873959,0.545640,-0.048888,-0.219113,-0.356747
"2018-06-07 00:14:52.512 +0000",1528330492.512103,1.325310,-0.218570,0.954321,0.946941,0.216834,-0.237246,0.000000,0.000000,0.000000,-1,-1.437950,0.570386,0.657969,0.016544,-0.298224,-0.497908
"2018-06-07 00:14:52.522 +0000",1528330492.522176,1.330952,-0.214146,0.967580,0.949187,0.212513,-0.232125,0.000000,0.000000,0.000000,-1,-1.040198,0.171519,0.749479,-0.015898,-0.392216,-0.621253
"2018-06-07 00:14:52.532 +0000",1528330492.532250,1.332038,-0.208828,0.975883,0.950523,0.207313,-0.231359,0.000000,0.000000,0.000000,-1,-0.514123,-0.106599,0.665716,-0.153114,-0.463279,-0.750651
"2018-06-07 00:14:52.542 +0000",1528330492.542323,1.333313,-0.204558,0.977902,0.951669,0.203134,-0.230352,0.000000,0.000000,0.000000,-1,0.043397,0.191437,0.382411,-0.278329,-0.378183,-0.720087
"2018-06-07 00:14:52.552 +0000",1528330492.552397,1.339428,-0.201736,0.974607,0.953614,0.200371,-0.224660,0.000000,0.000000,0.000000,-1,0.480498,0.849022,0.143454,-0.280686,-0.233879,-0.597087
"2018-06-07 00:14:52.562 +0000",1528330492.562470,1.352150,-0.199939,0.967936,0.956745,0.198610,-0.212587,0.000000,0.000000,0.000000,-1,0.710957,1.570411,-0.002338,-0.237262,-0.127687,-0.472792
"2018-06-07 00:14:52.573 +0000",1528330492.572543,1.369749,-0.199242,0.961151,0.960473,0.197927,-0.195745,0.000000,0.000000,0.000000,-1,0.622042,1.935011,-0.094655,-0.144632,-0.111226,-0.261927
"2018-06-07 00:14:52.583 +0000",1528330492.582617,1.387629,-0.199843,0.955774,0.963702,0.198516,-0.178519,0.000000,0.000000,0.000000,-1,0.469423,1.843822,-0.178471,-0.141940,-0.093199,-0.219933
"2018-06-07 00:14:52.593 +0000",1528330492.592690,1.403524,-0.201003,0.950957,0.966190,0.199653,-0.163142,0.000000,0.000000,0.000000,-1,0.441396,1.611078,-0.193067,-0.144016,-0.087561,-0.240545
"2018-06-07 00:14:52.603 +0000",1528330492.602763,1.417429,-0.201708,0.945704,0.968226,0.200343,-0.149669,0.000000,0.000000,0.000000,-1,0.514585,1.455135,-0.130226,-0.041484,-0.101420,-0.184773
"2018-06-07 00:14:52.613 +0000",1528330492.612837,1.428445,-0.200725,0.941020,0.970010,0.199380,-0.139023,0.000000,0.000000,0.000000,-1,0.420701,1.070760,0.106589,0.061941,0.089270,-0.086166
"2018-06-07 00:14:52.623 +0000",1528330492.622910,1.435070,-0.197661,0.938779,0.971511,0.196377,-0.132675,0.000000,0.000000,0.000000,-1,0.207511,0.579750,0.300340,0.047257,0.327152,0.051880
"2018-06-07 00:14:52.633 +0000",1528330492.632983,1.437535,-0.195589,0.937620,0.972236,0.194344,-0.130333,0.000000,0.000000,0.000000,-1,0.129468,0.171923,0.118624,-0.163475,0.194145,0.064461
"2018-06-07 00:14:52.643 +0000",1528330492.643057,1.436882,-0.196827,0.935874,0.971912,0.195559,-0.130937,0.000000,0.000000,0.000000,-1,0.169103,-0.081214,-0.224258,-0.274097,0.018964,-0.012954
"2018-06-07 00:14:52.653 +0000",1528330492.653130,1.435037,-0.200917,0.932774,0.970868,0.199568,-0.132620,0.000000,0.000000,0.000000,-1,0.263827,-0.120337,-0.518240,-0.195401,0.026506,-0.097818
"2018-06-07 00:14:52.663 +0000",1528330492.663203,1.436169,-0.208511,0.929672,0.969488,0.207004,-0.131314,0.000000,0.000000,0.000000,-1,0.150691,0.339764,-0.887740,-0.165227,-0.047320,0.022900
"2018-06-07 00:14:52.673 +0000",1528330492.673277,1.446012,-0.220233,0.928442,0.968259,0.218457,-0.121454,0.000000,0.000000,0.000000,-1,-0.088889,1.214466,-1.255744,-0.116300,-0.222272,0.193445
"2018-06-07 00:14:52.683 +0000",1528330492.683350,1.458480,-0.232876,0.928732,0.966876,0.230777,-0.109055,0.000000,0.000000,0.000000,-1,-0.190339,1.108406,-1.162239,0.070676,-0.123554,-0.141342
"2018-06-07 00:14:52.693 +0000",1528330492.693423,1.462769,-0.239620,0.928939,0.965766,0.237334,-0.104737,0.000000,0.000000,0.000000,-1,-0.028608,0.176259,-0.497346,0.350122,0.276567,-0.417129
"2018-06-07 00:14:52.703 +0000",1528330492.703497,1.458915,-0.241367,0.925727,0.964941,0.239030,-0.108412,0.000000,0.000000,0.000000,-1,0.400980,-0.392632,-0.153627,0.166895,0.280562,-0.452913
"2018-06-07 00:14:52.714 +0000",1528330492.713570,1.457273,-0.242734,0.919476,0.964436,0.240358,-0.109959,0.000000,0.000000,0.000000,-1,0.601763,0.211007,-0.250214,-0.085026,0.246215,0.033482
"2018-06-07 00:14:52.724 +0000",1528330492.723643,1.462115,-0.247296,0.913559,0.963857,0.244784,-0.105168,0.000000,0.000000,0.000000,-1,0.484302,0.671029,-0.603570,-0.103261,0.300505,0.420216
"2018-06-07 00:14:52.734 +0000",1528330492.733717,1.466953,-0.254253,0.908788,0.962638,0.251522,-0.100324,0.000000,0.000000,0.000000,-1,0.341488,0.575666,-0.732597,0.043679,0.215610,0.128522
"2018-06-07 00:14:52.744 +0000",1528330492.743790,1.472327,-0.260647,0.906126,0.961543,0.257706,-0.094990,0.000000,0.000000,0.000000,-1,0.147465,0.607661,-0.637403,0.132589,0.199158,0.183201
"2018-06-07 00:14:52.754 +0000",1528330492.753863,1.477065,-0.267402,0.904232,0.960227,0.264227,-0.090268,0.000000,0.000000,0.000000,-1,0.117750,0.469594,-0.717335,0.039971,0.157435,0.122128
"2018-06-07 00:14:52.764 +0000",1528330492.763937,1.478731,-0.275940,0.901789,0.958095,0.272451,-0.088458,0.000000,0.000000,0.000000,-1,0.165856,0.121488,-0.920679,-0.042796,0.090098,-0.063963
"2018-06-07 00:14:52.774 +0000",1528330492.774010,1.476917,-0.287210,0.899200,0.954815,0.283278,-0.089902,0.000000,0.000000,0.000000,-1,0.114816,-0.143073,-1.217134,-0.122112,0.068468,-0.136218
"2018-06-07 00:14:52.784 +0000",1528330492.784083,1.478370,-0.301464,0.899019,0.950827,0.296918,-0.088133,0.000000,0.000000,0.000000,-1,-0.216635,0.300555,-1.467861,-0.083746,0.008029,0.143232
"2018-06-07 00:14:52.794 +0000",1528330492.794157,1.483731,-0.319421,0.901656,0.945821,0.314017,-0.082557,0.000000,0.000000,0.000000,-1,-0.445837,0.450887,-1.867039,-0.137533,-0.128760,0.125983
"2018-06-07 00:14:52.804 +0000",1528330492.804230,1.487864,-0.341883,0.904839,0.938887,0.335261,-0.078043,0.000000,0.000000,0.000000,-1,-0.481164,0.255016,-2.303164,-0.299101,-0.314159,-0.205358
"2018-06-07 00:14:52.814 +0000",1528330492.814303,1.488843,-0.369186,0.905443,0.929491,0.360857,-0.076346,0.000000,0.000000,0.000000,-1,-0.170282,0.042889,-2.821878,-0.474596,-0.397325,-0.407449
"2018-06-07 00:14:52.824 +0000",1528330492.824377,1.488363,-0.397430,0.900201,0.918927,0.387050,-0.075923,0.000000,0.000000,0.000000,-1,0.378518,0.206709,-2.773150,-0.236493,-0.144497,-0.485753
"2018-06-07 00:14:52.834 +0000",1528330492.834450,1.488796,-0.420847,0.893300,0.909676,0.408534,-0.074761,0.000000,0.000000,0.000000,-1,0.402838,0.360537,-2.266130,0.350501,0.291234,0.016641
"2018-06-07 00:14:52.845 +0000",1528330492.844523,1.491475,-0.443869,0.888148,0.900257,0.429436,-0.071560,0.000000,0.000000,0.000000,-1,0.261740,0.507703,-2.375094,0.276455,0.388496,0.645016
"2018-06-07 00:14:52.855 +0000",1528330492.854597,1.495000,-0.468725,0.881991,0.889584,0.451749,-0.067557,0.000000,0.000000,0.000000,-1,0.383455,0.670003,-2.515810,0.194401,0.096835,0.538550
"2018-06-07 00:14:52.865 +0000",1528330492.864670,1.500918,-0.493010,0.875645,0.878762,0.473280,-0.061507,0.000000,0.000000,0.000000,-1,0.372041,0.952845,-2.432137,0.302527,0.011141,0.262023
"2018-06-07 00:14:52.875 +0000",1528330492.874743,1.508491,-0.517507,0.869566,0.867369,0.494715,-0.054111,0.000000,0.000000,0.000000,-1,0.380671,1.041959,-2.472772,0.129915,-0.034189,0.035053
"2018-06-07 00:14:52.885 +0000",1528330492.884817,1.513294,-0.542026,0.861460,0.855249,0.515873,-0.049233,0.000000,0.000000,0.000000,-1,0.611859,0.818603,-2.459968,0.082510,-0.109638,-0.134971
"2018-06-07 00:14:52.895 +0000",1528330492.894890,1.513686,-0.565599,0.851544,0.842892,0.535921,-0.048190,0.000000,0.000000,0.000000,-1,0.707999,0.457249,-2.351523,0.088734,-0.126650,-0.101606
"2018-06-07 00:14:52.905 +0000",1528330492.904963,1.509796,-0.588217,0.841314,0.830384,0.554879,-0.050717,0.000000,0.000000,0.000000,-1,0.717267,0.078247,-2.280579,-0.002839,-0.100502,-0.018878
"2018-06-07 00:14:52.915 +0000",1528330492.915037,1.501230,-0.611392,0.829792,0.816869,0.574008,-0.056918,0.000000,0.000000,0.000000,-1,0.834117,-0.328196,-2.401425,-0.094991,0.002790,-0.049893
"2018-06-07 00:14:52.925 +0000",1528330492.925110,1.474110,-0.635559,0.812898,0.800982,0.593627,-0.077686,0.000000,0.000000,0.000000,-1,1.268439,-2.192727,-2.514333,-0.214052,0.072007,-0.158581
"2018-06-07 00:14:52.935 +0000",1528330492.935183,1.436535,-0.658389,0.794483,0.783861,0.611843,-0.105879,0.000000,0.000000,0.000000,-1,1.111589,-2.547593,-2.288045,-0.139070,0.096424,0.011397
"2018-06-07 00:14:52.945 +0000",1528330492.945257,1.408943,-0.676185,0.779968,0.769772,0.625822,-0.125689,0.000000,0.000000,0.000000,-1,0.791036,-1.618396,-1.829610,0.079273,0.261461,0.019915
"2018-06-07 00:14:52.955 +0000",1528330492.955330,1.389397,-0.691726,0.767481,0.757509,0.637868,-0.138939,0.000000,0.000000,0.000000,-1,0.650450,-1.041022,-1.647976,-0.005083,0.104564,-0.080833
"2018-06-07 00:14:52.965 +0000",1528330492.965404,1.374227,-0.706033,0.757231,0.746288,0.648821,-0.148616,0.000000,0.000000,0.000000,-1,0.438998,-0.818304,-1.495178,-0.013973,0.009322,-0.012532
"2018-06-07 00:14:52.975 +0000",1528330492.975477,1.363579,-0.718960,0.750496,0.736393,0.658602,-0.154816,0.000000,0.000000,0.000000,-1,0.178930,-0.540969,-1.309840,-0.070469,0.144926,-0.018158
"2018-06-07 00:14:52.986 +0000",1528330492.985550,1.357106,-0.728954,0.746235,0.728907,0.666090,-0.158175,0.000000,0.000000,0.000000,-1,0.101139,-0.300208,-0.920654,-0.028147,0.201067,-0.085126
"2018-06-07 00:14:52.996 +0000",1528330492.995624,1.353142,-0.733094,0.742743,0.725575,0.669172,-0.160467,0.000000,0.000000,0.000000,-1,0.188639,-0.121428,-0.300762,0.172725,0.248979,-0.180735
"2018-06-07 00:14:53.006 +0000",1528330493.005697,1.351766,-0.732572,0.739665,0.725694,0.668784,-0.161540,0.000000,0.000000,0.000000,-1,0.239984,0.144924,0.092505,0.126249,0.220727,-0.073704
"2018-06-07 00:14:53.016 +0000",1528330493.015770,1.354559,-0.728290,0.737705,0.728933,0.665595,-0.160126,0.000000,0.000000,0.000000,-1,0.237700,0.498961,0.482924,0.113245,0.132944,0.052887
"2018-06-07 00:14:53.026 +0000",1528330493.025844,1.360314,-0.720938,0.736013,0.734608,0.660089,-0.156946,0.000000,0.000000,0.000000,-1,0.290192,0.715418,0.732983,0.069072,0.100760,-0.002813
"2018-06-07 00:14:53.036 +0000",1528330493.035917,1.365008,-0.712777,0.733998,0.740586,0.653937,-0.154593,0.000000,0.000000,0.000000,-1,0.320575,0.514465,0.767825,-0.072831,0.053491,-0.076105
"2018-06-07 00:14:53.046 +0000",1528330493.045990,1.365790,-0.704812,0.731216,0.745782,0.647891,-0.155069,0.000000,0.000000,0.000000,-1,0.381467,0.091233,0.686857,-0.160638,0.028654,-0.036719
"2018-06-07 00:14:53.056 +0000",1528330493.056064,1.358525,-0.701772,0.726419,0.746558,0.645572,-0.160897,0.000000,0.000000,0.000000,-1,0.417449,-0.517429,0.042844,-0.173468,-0.026462,-0.106453
"2018-06-07 00:14:53.066 +0000",1528330493.066137,1.351125,-0.703741,0.723581,0.744105,0.647075,-0.166140,0.000000,0.000000,0.000000,-1,0.051301,-0.532449,-0.283358,0.013845,-0.028194,0.032472
"2018-06-07 00:14:53.076 +0000",1528330493.076210,1.347325,-0.707884,0.726375,0.740847,0.650228,-0.168370,0.000000,0.000000,0.000000,-1,-0.404983,-0.583908,-0.356682,-0.000811,0.044535,0.053319
"2018-06-07 00:14:53.086 +0000",1528330493.086284,1.346284,-0.712163,0.735109,0.737953,0.653473,-0.168520,0.000000,0.000000,0.000000,-1,-0.846945,-0.698714,-0.235531,0.003258,0.020249,-0.037702
"2018-06-07 00:14:53.096 +0000",1528330493.096357,1.344950,-0.718213,0.748652,0.733861,0.658040,-0.168617,0.000000,0.000000,0.000000,-1,-1.209496,-1.164373,-0.427521,-0.035496,0.089320,-0.078377
"2018-06-07 00:14:53.106 +0000",1528330493.106430,1.341280,-0.727235,0.765283,0.727426,0.664807,-0.169951,0.000000,0.000000,0.000000,-1,-1.459661,-1.499017,-0.635521,-0.154046,0.212436,-0.131746
"2018-06-07 00:14:53.117 +0000",1528330493.116504,1.337023,-0.737823,0.785537,0.719808,0.672679,-0.171406,0.000000,0.000000,0.000000,-1,-1.805536,-1.914750,-0.680039,-0.036916,0.214391,-0.062496
"2018-06-07 00:14:53.127 +0000",1528330493.126577,1.332256,-0.748179,0.812869,0.712175,0.680305,-0.173180,0.000000,0.000000,0.000000,-1,-2.302484,-2.417623,-0.463084,0.052931,-0.036278,-0.077614
"2018-06-07 00:14:53.137 +0000",1528330493.136650,1.330217,-0.757707,0.847842,0.705493,0.687258,-0.173079,0.000000,0.000000,0.000000,-1,-2.819426,-2.592170,-0.281699,-0.042300,-0.226107,-0.004930
"2018-06-07 00:14:53.147 +0000",1528330493.146724,1.335185,-0.767006,0.890460,0.700099,0.693983,-0.168073,0.000000,0.000000,0.000000,-1,-3.298711,-2.341640,-0.132510,-0.086132,-0.197446,0.081449
"2018-06-07 00:14:53.157 +0000",1528330493.156796,1.348995,-0.774482,0.936771,0.697273,0.699346,-0.157243,0.000000,0.000000,0.000000,-1,-3.354630,-1.612683,0.083792,-0.026603,-0.115163,0.040041
"2018-06-07 00:14:53.167 +0000",1528330493.166870,1.370885,-0.778001,0.978529,0.698131,0.701857,-0.141454,0.000000,0.000000,0.000000,-1,-2.791662,-0.412358,0.347376,0.040745,-0.051650,-0.062648
"2018-06-07 00:14:53.177 +0000",1528330493.176944,1.399330,-0.776247,1.009457,0.703084,0.700607,-0.121751,0.000000,0.000000,0.000000,-1,-1.882643,1.031357,0.653902,0.051829,-0.097228,-0.098891
"2018-06-07 00:14:53.187 +0000",1528330493.187016,1.430657,-0.770389,1.029455,0.710604,0.696415,-0.100241,0.000000,0.000000,0.000000,-1,-1.164205,1.863656,0.823554,-0.030917,-0.063068,-0.027857
"2018-06-07 00:14:53.197 +0000",1528330493.197090,1.459160,-0.763574,1.044392,0.717873,0.691507,-0.080475,0.000000,0.000000,0.000000,-1,-0.948469,1.709618,0.788191,-0.109138,0.100134,0.061066
"2018-06-07 00:14:53.207 +0000",1528330493.207164,1.481109,-0.757563,1.058679,0.723593,0.687153,-0.065072,0.000000,0.000000,0.000000,-1,-0.968897,1.009710,0.662503,-0.110403,0.167217,0.126199
"2018-06-07 00:14:53.217 +0000",1528330493.217237,1.495549,-0.754401,1.071034,0.726620,0.684852,-0.054780,0.000000,0.000000,0.000000,-1,-0.806571,0.492680,0.241126,-0.090908,0.238259,0.103394
"2018-06-07 00:14:53.227 +0000",1528330493.227310,1.504972,-0.756721,1.078092,0.725516,0.686541,-0.047826,0.000000,0.000000,0.000000,-1,-0.411617,0.482905,-0.308386,0.061929,0.272413,0.122090
"2018-06-07 00:14:53.237 +0000",1528330493.237384,1.510717,-0.762444,1.078475,0.721846,0.690691,-0.043421,0.000000,0.000000,0.000000,-1,0.044709,0.547089,-0.652375,0.151415,0.058699,0.113962
"2018-06-07 00:14:53.247 +0000",1528330493.247457,1.512071,-0.771250,1.073410,0.715804,0.697032,-0.042084,0.000000,0.000000,0.000000,-1,0.390638,0.451646,-0.962155,0.044740,0.039204,0.065033
"2018-06-07 00:14:53.258 +0000",1528330493.257530,1.508398,-0.781313,1.064252,0.708608,0.704212,-0.044274,0.000000,0.000000,0.000000,-1,0.644638,0.198013,-1.044148,0.010829,0.000194,0.022774
"2018-06-07 00:14:53.268 +0000",1528330493.267604,1.499676,-0.790750,1.052233,0.701534,0.710881,-0.049977,0.000000,0.000000,0.000000,-1,0.821766,-0.080679,-0.960388,-0.021862,-0.036000,0.006658
"2018-06-07 00:14:53.278 +0000",1528330493.277677,1.487506,-0.798315,1.037638,0.695495,0.716181,-0.058063,0.000000,0.000000,0.000000,-1,0.997967,-0.196227,-0.776117,-0.062713,-0.067347,0.038211
"2018-06-07 00:14:53.288 +0000",1528330493.287750,1.472330,-0.803195,1.020888,0.691047,0.719578,-0.068266,0.000000,0.000000,0.000000,-1,1.143216,-0.358260,-0.521993,-0.102943,-0.106190,0.019804
"2018-06-07 00:14:53.298 +0000",1528330493.297823,1.454507,-0.805289,1.003001,0.688223,0.721031,-0.080395,0.000000,0.000000,0.000000,-1,1.216129,-0.525912,-0.284930,-0.120932,-0.130577,0.005612
"2018-06-07 00:14:53.308 +0000",1528330493.307897,1.435489,-0.805859,0.984625,0.686162,0.721426,-0.093413,0.000000,0.000000,0.000000,-1,1.256548,-0.577718,-0.207727,-0.079244,-0.130483,0.018920
"2018-06-07 00:14:53.318 +0000",1528330493.317970,1.416372,-0.807077,0.965935,0.683383,0.722268,-0.106378,0.000000,0.000000,0.000000,-1,1.250280,-0.546390,-0.352834,0.010755,-0.112420,0.023233
"2018-06-07 00:14:53.328 +0000",1528330493.328043,1.397751,-0.810518,0.947257,0.678831,0.724644,-0.118655,0.000000,0.000000,0.000000,-1,1.188195,-0.499349,-0.617163,0.052981,-0.065495,0.043201
"2018-06-07 00:14:53.338 +0000",1528330493.338117,1.379184,-0.816738,0.929480,0.672073,0.728916,-0.130377,0.000000,0.000000,0.000000,-1,1.034955,-0.599617,-0.892469,0.048569,0.033367,0.011999
"2018-06-07 00:14:53.348 +0000",1528330493.348190,1.360488,-0.825186,0.914472,0.663472,0.734674,-0.141628,0.000000,0.000000,0.000000,-1,0.745454,-0.814910,-1.053779,0.058406,0.089392,-0.053532
"2018-06-07 00:14:53.358 +0000",1528330493.358263,1.343888,-0.834878,0.905139,0.654061,0.741215,-0.151012,0.000000,0.000000,0.000000,-1,0.271009,-1.002780,-1.070450,0.057243,0.060055,-0.103031
"2018-06-07 00:14:53.368 +0000",1528330493.368337,1.336227,-0.843382,0.905085,0.646730,0.746897,-0.154548,0.000000,0.000000,0.000000,-1,-0.354306,-0.582478,-0.664428,0.005995,0.051718,-0.110238
"2018-06-07 00:14:53.378 +0000",1528330493.378411,1.340562,-0.845791,0.914089,0.645640,0.748496,-0.151332,0.000000,0.000000,0.000000,-1,-0.659269,-0.211858,0.021459,-0.114695,0.096795,-0.170293
"2018-06-07 00:14:53.388 +0000",1528330493.388484,1.343240,-0.847185,0.922465,0.645026,0.749419,-0.149367,0.000000,0.000000,0.000000,-1,-0.544121,-0.424254,-0.038583,-0.202857,0.060136,-0.175111
"2018-06-07 00:14:53.399 +0000",1528330493.398557,1.342673,-0.848858,0.930660,0.643719,0.750526,-0.149449,0.000000,0.000000,0.000000,-1,-0.574330,-0.742720,-0.031911,-0.196622,0.097588,0.011662
"2018-06-07 00:14:53.409 +0000",1528330493.408631,1.340762,-0.850401,0.939500,0.642304,0.751545,-0.150415,0.000000,0.000000,0.000000,-1,-0.603782,-0.869134,-0.010699,-0.115555,0.084454,0.052499
"2018-06-07 00:14:53.419 +0000",1528330493.418704,1.338473,-0.851601,0.948380,0.641080,0.752336,-0.151676,0.000000,0.000000,0.000000,-1,-0.584079,-0.888987,0.024695,-0.039502,0.017501,0.024174
"2018-06-07 00:14:53.429 +0000",1528330493.428777,1.336332,-0.852249,0.956435,0.640280,0.752762,-0.152935,0.000000,0.000000,0.000000,-1,-0.495337,-0.768216,0.079701,-0.022558,-0.011689,0.000683
"2018-06-07 00:14:53.439 +0000",1528330493.438850,1.335492,-0.851771,0.961643,0.640500,0.752448,-0.153557,0.000000,0.000000,0.000000,-1,-0.248221,-0.351675,0.127675,-0.015393,-0.093513,0.061684
"2018-06-07 00:14:53.449 +0000",1528330493.448924,1.335872,-0.850980,0.962010,0.641137,0.751927,-0.153452,0.000000,0.000000,0.000000,-1,0.070124,0.119351,0.057324,-0.011574,-0.139821,0.114603
"2018-06-07 00:14:53.459 +0000",1528330493.458997,1.336664,-0.850544,0.958291,0.641577,0.751640,-0.153021,0.000000,0.000000,0.000000,-1,0.296355,0.425541,-0.033734,0.004495,-0.096946,0.116155
"2018-06-07 00:14:53.469 +0000",1528330493.469070,1.337688,-0.850321,0.952349,0.641896,0.751492,-0.152402,0.000000,0.000000,0.000000,-1,0.400552,0.564338,-0.078746,0.020427,-0.072553,0.070920
"2018-06-07 00:14:53.479 +0000",1528330493.479144,1.339045,-0.850398,0.946347,0.642046,0.751543,-0.151517,0.000000,0.000000,0.000000,-1,0.363962,0.583002,-0.103347,0.028944,-0.056749,-0.001239
"2018-06-07 00:14:53.489 +0000",1528330493.489217,1.340937,-0.851004,0.942099,0.641889,0.751942,-0.150199,0.000000,0.000000,0.000000,-1,0.215117,0.464132,-0.128092,0.023944,-0.004506,-0.034204
"2018-06-07 00:14:53.499 +0000",1528330493.499290,1.342696,-0.851909,0.940660,0.641488,0.752539,-0.148916,0.000000,0.000000,0.000000,-1,0.022888,0.215363,-0.095031,0.005668,0.013650,-0.063349
"2018-06-07 00:14:53.509 +0000",1528330493.509364,1.344067,-0.852356,0.942673,0.641364,0.752833,-0.147960,0.000000,0.000000,0.000000,-1,-0.195158,-0.096415,0.025034,0.004922,-0.079493,-0.076527
"2018-06-07 00:14:53.519 +0000",1528330493.519437,1.345940,-0.851487,0.948701,0.642277,0.752261,-0.146904,0.000000,0.000000,0.000000,-1,-0.421254,-0.319630,0.224973,0.031688,-0.202288,-0.017952
"2018-06-07 00:14:53.530 +0000",1528330493.529510,1.416497,-0.813524,1.008479,0.678778,0.726713,-0.105574,0.000000,0.000000,0.000000,-1,-0.572776,-0.506394,0.420544,-0.028556,-0.153943,0.006880
"2018-06-07 00:14:53.540 +0000",1528330493.539584,1.445565,-0.804513,1.038574,0.688029,0.720493,-0.086616,0.000000,0.000000,0.000000,-1,-0.665963,-0.579556,0.528109,-0.076869,-0.043247,0.024406
"2018-06-07 00:14:53.550 +0000",1528330493.549657,1.447593,-0.798041,1.049494,0.692817,0.715990,-0.085792,0.000000,0.000000,0.000000,-1,-0.663717,-0.592651,0.510855,-0.093619,0.145613,0.033744
"2018-06-07 00:14:53.560 +0000",1528330493.559731,1.447243,-0.794043,1.055920,0.695622,0.713193,-0.086387,0.000000,0.000000,0.000000,-1,-0.273532,-0.413357,0.422280,-0.108281,0.318972,-0.169274
"2018-06-07 00:14:53.570 +0000",1528330493.569804,1.447659,-0.790406,1.054922,0.698227,0.710639,-0.086415,0.000000,0.000000,0.000000,-1,0.229633,0.296502,0.327461,-0.081299,0.333154,-0.120357
"2018-06-07 00:14:53.580 +0000",1528330493.579876,1.450610,-0.787103,1.049860,0.700805,0.708311,-0.084635,0.000000,0.000000,0.000000,-1,0.409254,0.711083,0.274473,-0.013992,0.197710,0.016245
"2018-06-07 00:14:53.590 +0000",1528330493.589951,1.454383,-0.783982,1.045476,0.703312,0.706105,-0.082246,0.000000,0.000000,0.000000,-1,0.306387,0.650423,0.273456,-0.014897,0.077419,-0.003660
"2018-06-07 00:14:53.600 +0000",1528330493.600024,1.457694,-0.780926,1.043512,0.705722,0.703937,-0.080161,0.000000,0.000000,0.000000,-1,0.125813,0.390759,0.294628,-0.066257,0.025402,-0.070809
"2018-06-07 00:14:53.610 +0000",1528330493.610096,1.459501,-0.777709,1.043919,0.708113,0.701649,-0.079137,0.000000,0.000000,0.000000,-1,-0.031675,0.068541,0.326320,-0.114485,-0.038044,-0.133922
"2018-06-07 00:14:53.620 +0000",1528330493.620171,1.459962,-0.774785,1.046991,0.710185,0.699563,-0.079037,0.000000,0.000000,0.000000,-1,-0.238088,-0.241489,0.299000,-0.128520,-0.035164,-0.120288
"2018-06-07 00:14:53.630 +0000",1528330493.630244,1.460175,-0.773183,1.053556,0.711315,0.698417,-0.079009,0.000000,0.000000,0.000000,-1,-0.517304,-0.485430,0.169852,-0.120357,0.058160,-0.078721
"2018-06-07 00:14:53.640 +0000",1528330493.640316,1.461783,-0.773829,1.063696,0.710992,0.698879,-0.077816,0.000000,0.000000,0.000000,-1,-0.781383,-0.545669,-0.038393,-0.089654,0.181111,-0.070590
"2018-06-07 00:14:53.650 +0000",1528330493.650391,1.465455,-0.776413,1.074786,0.709475,0.700725,-0.075015,0.000000,0.000000,0.000000,-1,-0.783445,-0.322118,-0.207690,-0.064364,0.261769,-0.070905
"2018-06-07 00:14:53.660 +0000",1528330493.660464,1.471524,-0.779349,1.081095,0.707867,0.702816,-0.070503,0.000000,0.000000,0.000000,-1,-0.341625,0.340108,-0.241196,-0.050259,0.264240,-0.009148
"2018-06-07 00:14:53.671 +0000",1528330493.670537,1.478313,-0.780827,1.080405,0.707294,0.703867,-0.065600,0.000000,0.000000,0.000000,-1,0.142169,0.807451,-0.108640,-0.030902,0.124685,0.031085
"2018-06-07 00:14:53.681 +0000",1528330493.680611,1.484414,-0.780541,1.076575,0.707881,0.703664,-0.061301,0.000000,0.000000,0.000000,-1,0.288103,0.867658,0.028883,-0.068309,0.065623,-0.013009
"2018-06-07 00:14:53.691 +0000",1528330493.690684,1.489294,-0.780472,1.073517,0.708221,0.703615,-0.057850,0.000000,0.000000,0.000000,-1,0.176475,0.620635,-0.039345,-0.161407,0.150770,-0.102551
"2018-06-07 00:14:53.701 +0000",1528330493.700757,1.492808,-0.781981,1.072847,0.707360,0.704686,-0.055278,0.000000,0.000000,0.000000,-1,-0.012174,0.336438,-0.194633,-0.168664,0.195063,-0.131383
"2018-06-07 00:14:53.711 +0000",1528330493.710831,1.496103,-0.785169,1.074018,0.705295,0.706945,-0.052779,0.000000,0.000000,0.000000,-1,-0.129603,0.229161,-0.345266,-0.114597,0.179149,-0.073838
"2018-06-07 00:14:53.721 +0000",1528330493.720904,1.499680,-0.789254,1.075933,0.702592,0.709828,-0.050050,0.000000,0.000000,0.000000,-1,-0.170115,0.222704,-0.403277,-0.079408,0.134578,-0.034194
"2018-06-07 00:14:53.731 +0000",1528330493.730977,1.476277,-0.837595,1.057935,0.666263,0.743035,-0.063163,0.000000,0.000000,0.000000,-1,-0.159724,0.279785,-0.395606,-0.070590,0.046439,0.002402
"2018-06-07 00:14:53.741 +0000",1528330493.741051,1.476723,-0.869569,1.055619,0.642301,0.764051,-0.060603,0.000000,0.000000,0.000000,-1,-0.065810,0.447756,-0.336171,-0.062131,-0.012937,0.005930
"2018-06-07 00:14:53.751 +0000",1528330493.751123,1.489304,-0.875273,1.060079,0.638658,0.767718,-0.052161,0.000000,0.000000,0.000000,-1,0.061932,0.674152,-0.312141,-0.069551,-0.017245,0.006766
"2018-06-07 00:14:53.761 +0000",1528330493.761198,1.489887,-0.877731,1.053601,0.636805,0.769291,-0.051636,0.000000,0.000000,0.000000,-1,0.111967,0.821260,-0.280634,-0.041178,0.010234,-0.007446
"2018-06-07 00:14:53.771 +0000",1528330493.771271,1.469406,-0.896815,1.029805,0.620894,0.781343,-0.063169,0.000000,0.000000,0.000000,-1,0.135501,0.911049,-0.210510,-0.024871,-0.005022,-0.020464
"2018-06-07 00:14:53.781 +0000",1528330493.781343,1.451905,-0.912266,1.007910,0.607632,0.790892,-0.072585,0.000000,0.000000,0.000000,-1,0.124512,0.899771,-0.145979,-0.029171,-0.023620,-0.009203
"2018-06-07 00:14:53.791 +0000",1528330493.791418,1.448701,-0.919790,0.998817,0.601473,0.795474,-0.073804,0.000000,0.000000,0.000000,-1,0.059196,0.691896,-0.094803,-0.006945,-0.044635,-0.038760
"2018-06-07 00:14:53.801 +0000",1528330493.801491,1.452409,-0.921478,0.997583,0.600408,0.796496,-0.071415,0.000000,0.000000,0.000000,-1,-0.033444,0.481741,-0.041420,-0.008276,-0.074816,-0.069531
"2018-06-07 00:14:53.812 +0000",1528330493.811563,1.459001,-0.922040,0.999730,0.600421,0.796836,-0.067406,0.000000,0.000000,0.000000,-1,-0.044935,0.416941,-0.041582,-0.027240,-0.072119,-0.050911
"2018-06-07 00:14:53.822 +0000",1528330493.821638,1.464825,-0.921039,1.000071,0.601597,0.796230,-0.063992,0.000000,0.000000,0.000000,-1,0.097584,0.525895,-0.012549,-0.009495,-0.062283,0.016354
"2018-06-07 00:14:53.832 +0000",1528330493.831711,1.470823,-0.920802,0.998573,0.602157,0.796087,-0.060401,0.000000,0.000000,0.000000,-1,0.245432,0.649184,0.004681,-0.000091,-0.007879,0.058860
"2018-06-07 00:14:53.842 +0000",1528330493.841784,1.473580,-0.919990,0.994004,0.602965,0.795595,-0.058804,0.000000,0.000000,0.000000,-1,0.268491,0.614075,0.015283,0.024004,0.052717,0.021984
"2018-06-07 00:14:53.852 +0000",1528330493.851858,1.471505,-0.918700,0.987623,0.603861,0.794814,-0.060156,0.000000,0.000000,0.000000,-1,0.158300,0.378776,0.032061,-0.001628,0.042940,-0.059213
"2018-06-07 00:14:53.862 +0000",1528330493.861931,1.469043,-0.918354,0.983620,0.603986,0.794603,-0.061671,0.000000,0.000000,0.000000,-1,0.054475,0.154512,0.039176,-0.001935,0.024168,-0.105855
"2018-06-07 00:14:53.872 +0000",1528330493.872004,1.462970,-0.915897,0.978052,0.605539,0.793109,-0.065547,0.000000,0.000000,0.000000,-1,0.028114,0.055532,0.064764,0.029776,-0.020968,-0.089772
"2018-06-07 00:14:53.882 +0000",1528330493.882078,1.455003,-0.912358,0.970623,0.607782,0.790949,-0.070694,0.000000,0.000000,0.000000,-1,0.091994,0.117113,0.082007,0.030799,-0.052195,-0.044678
"2018-06-07 00:14:53.892 +0000",1528330493.892150,1.450156,-0.910095,0.964155,0.609207,0.789562,-0.073854,0.000000,0.000000,0.000000,-1,0.189482,0.241391,0.091826,0.043778,-0.067562,0.023668
"2018-06-07 00:14:53.902 +0000",1528330493.902224,1.452617,-0.907904,0.961627,0.611103,0.788216,-0.072558,0.000000,0.000000,0.000000,-1,0.298648,0.407506,0.080227,0.037075,-0.048149,0.050448
"2018-06-07 00:14:53.912 +0000",1528330493.912298,1.460105,-0.907700,0.961341,0.611789,0.788090,-0.067998,0.000000,0.000000,0.000000,-1,0.367841,0.532839,0.081509,0.044995,0.025814,0.056325
"2018-06-07 00:14:53.922 +0000",1528330493.922370,1.464555,-0.908015,0.958648,0.611839,0.788284,-0.065249,0.000000,0.000000,0.000000,-1,0.304586,0.527043,0.112831,0.054634,0.054947,0.024050
"2018-06-07 00:14:53.932 +0000",1528330493.932444,1.461281,-0.908120,0.950757,0.611539,0.788349,-0.067242,0.000000,0.000000,0.000000,-1,0.261215,0.459756,0.161138,0.053667,0.030301,-0.017719
"2018-06-07 00:14:53.943 +0000",1528330493.942518,1.454214,-0.905879,0.940057,0.612802,0.786968,-0.071768,0.000000,0.000000,0.000000,-1,0.279852,0.466776,0.332144,0.032370,0.034291,-0.011042
"2018-06-07 00:14:53.953 +0000",1528330493.952590,1.450110,-0.896261,0.931199,0.619988,0.780997,-0.075189,0.000000,0.000000,0.000000,-1,0.320504,0.572065,0.906751,0.013191,0.077538,0.029795
"2018-06-07 00:14:53.963 +0000",1528330493.962664,1.450496,-0.885243,0.922817,0.628522,0.774069,-0.075978,0.000000,0.000000,0.000000,-1,0.567243,0.906072,0.740433,0.074466,-0.052557,0.041219
"2018-06-07 00:14:53.973 +0000",1528330493.972738,1.452722,-0.879974,0.912476,0.632731,0.770722,-0.075058,0.000000,0.000000,0.000000,-1,0.712915,0.975018,0.363824,0.155003,-0.225007,-0.026062
"2018-06-07 00:14:53.983 +0000",1528330493.982810,1.453132,-0.877673,0.903722,0.634522,0.769254,-0.075007,0.000000,0.000000,0.000000,-1,0.526247,0.608958,0.097502,-0.010315,-0.298765,-0.031026
"2018-06-07 00:14:53.993 +0000",1528330493.992884,1.452350,-0.877742,0.897984,0.634410,0.769298,-0.075497,0.000000,0.000000,0.000000,-1,0.302182,0.300661,-0.093271,-0.213908,-0.329525,-0.037845
"2018-06-07 00:14:54.003 +0000",1528330494.002958,1.451861,-0.879337,0.895960,0.633153,0.770316,-0.075662,0.000000,0.000000,0.000000,-1,0.047938,0.028104,-0.188138,-0.249090,-0.221687,-0.016990
"2018-06-07 00:14:54.013 +0000",1528330494.013031,1.450163,-0.880837,0.896889,0.631877,0.771272,-0.076598,0.000000,0.000000,0.000000,-1,-0.107772,-0.328333,-0.110296,-0.205271,-0.341432,-0.084139
"2018-06-07 00:14:54.023 +0000",1528330494.023105,1.447328,-0.880483,0.900469,0.631928,0.771046,-0.078422,0.000000,0.000000,0.000000,-1,-0.262611,-0.625030,0.120459,-0.198960,-0.473134,-0.098183
"2018-06-07 00:14:54.033 +0000",1528330494.033178,1.443738,-0.878983,0.906234,0.632789,0.770090,-0.080837,0.000000,0.000000,0.000000,-1,-0.360629,-0.841859,0.191045,-0.243110,-0.284128,-0.066029
"2018-06-07 00:14:54.043 +0000",1528330494.043251,1.439633,-0.878718,0.912147,0.632654,0.769922,-0.083460,0.000000,0.000000,0.000000,-1,-0.370906,-0.830207,0.023302,-0.179666,-0.064187,0.039103
"2018-06-07 00:14:54.053 +0000",1528330494.053325,1.440600,-0.880544,0.919611,0.631339,0.771086,-0.082666,0.000000,0.000000,0.000000,-1,-0.540110,-0.305153,-0.165172,0.122994,0.002077,0.208261
"2018-06-07 00:14:54.063 +0000",1528330494.063397,1.451864,-0.883467,0.929468,0.629990,0.772943,-0.075282,0.000000,0.000000,0.000000,-1,-0.683550,0.584877,-0.197751,0.446243,0.116598,0.216135
"2018-06-07 00:14:54.073 +0000",1528330494.073471,1.471316,-0.883950,0.941242,0.630963,0.773249,-0.062977,0.000000,0.000000,0.000000,-1,-0.761181,1.129965,0.133160,0.521060,-0.014811,0.081958
"2018-06-07 00:14:54.084 +0000",1528330494.083545,1.495522,-0.881529,0.955336,0.634167,0.771712,-0.047827,0.000000,0.000000,0.000000,-1,-0.917471,1.381117,0.348302,0.266407,-0.027007,0.021276
"2018-06-07 00:14:54.094 +0000",1528330494.093617,1.524778,-0.878425,0.973662,0.637685,0.769734,-0.029366,0.000000,0.000000,0.000000,-1,-1.225668,1.531586,0.388169,-0.010549,0.054500,0.109398
"2018-06-07 00:14:54.104 +0000",1528330494.103691,1.558769,-0.874319,0.998041,0.641469,0.767107,-0.007715,0.000000,0.000000,0.000000,-1,-1.624315,1.456578,0.471688,-0.126180,0.053129,0.081537
"2018-06-07 00:14:54.114 +0000",1528330494.113765,1.592653,-0.869955,1.025712,0.644704,0.764300,0.014093,0.000000,0.000000,0.000000,-1,-1.791488,1.184206,0.390605,-0.121022,0.046567,0.011831
"2018-06-07 00:14:54.124 +0000",1528330494.123837,1.623906,-0.866144,1.053059,0.646852,0.761837,0.034387,0.000000,0.000000,0.000000,-1,-1.757003,0.999159,0.299634,-0.037919,0.047947,0.008094
"2018-06-07 00:14:54.134 +0000",1528330494.133911,1.648330,-0.862452,1.077969,0.648619,0.759440,0.050391,0.000000,0.000000,0.000000,-1,-1.512154,0.230543,0.241979,-0.009184,0.067205,-0.049933
"2018-06-07 00:14:54.144 +0000",1528330494.143984,1.658038,-0.860458,1.094150,0.649607,0.758141,0.056817,0.000000,0.000000,0.000000,-1,-0.918936,-0.290690,0.061623,0.029089,-0.020791,-0.104165
"2018-06-07 00:14:54.154 +0000",1528330494.154057,1.661414,-0.860425,1.102373,0.649436,0.758120,0.059012,0.000000,0.000000,0.000000,-1,-0.410593,-0.279927,-0.073966,0.126672,0.078641,0.043405
"2018-06-07 00:14:54.164 +0000",1528330494.164130,1.660687,-0.863104,1.104221,0.647454,0.759864,0.058358,0.000000,0.000000,0.000000,-1,0.010664,-0.179817,-0.369366,0.118248,0.167428,0.080604
"2018-06-07 00:14:54.174 +0000",1528330494.174204,1.656130,-0.870481,1.100453,0.642110,0.764639,0.054927,0.000000,0.000000,0.000000,-1,0.392266,-0.185643,-0.822028,0.122172,0.264002,0.078557
"2018-06-07 00:14:54.184 +0000",1528330494.184277,1.646584,-0.881191,1.092306,0.634403,0.771497,0.048172,0.000000,0.000000,0.000000,-1,0.672541,-0.370525,-1.051244,0.119214,0.243655,0.023056
"2018-06-07 00:14:54.194 +0000",1528330494.194350,1.632000,-0.892559,1.079064,0.626243,0.778680,0.038377,0.000000,0.000000,0.000000,-1,0.986771,-0.414585,-1.069302,0.050805,0.175879,0.001205
"2018-06-07 00:14:54.204 +0000",1528330494.204424,1.615454,-0.902878,1.061818,0.618731,0.785113,0.027649,0.000000,0.000000,0.000000,-1,1.139964,-0.257755,-0.931514,-0.020572,0.119550,0.017807
"2018-06-07 00:14:54.214 +0000",1528330494.214497,1.600578,-0.912223,1.043544,0.611714,0.790866,0.018224,0.000000,0.000000,0.000000,-1,1.133899,0.052614,-0.863907,-0.050969,0.094022,0.039653
"2018-06-07 00:14:54.225 +0000",1528330494.224570,1.587006,-0.920322,1.024757,0.605480,0.795797,0.009816,0.000000,0.000000,0.000000,-1,1.194972,0.100622,-0.753116,0.029896,0.051875,0.016506
"2018-06-07 00:14:54.235 +0000",1528330494.234644,1.564237,-0.927930,0.999543,0.599475,0.800381,-0.003932,0.000000,0.000000,0.000000,-1,1.632354,-0.398763,-0.749117,0.040692,-0.010876,-0.078129
"2018-06-07 00:14:54.245 +0000",1528330494.244717,1.534608,-0.934930,0.968741,0.593482,0.804557,-0.021486,0.000000,0.000000,0.000000,-1,1.846532,-0.505854,-0.724103,-0.033545,0.041344,0.009478
"2018-06-07 00:14:54.255 +0000",1528330494.254791,1.499824,-0.940907,0.935730,0.587568,0.808093,-0.041771,0.000000,0.000000,0.000000,-1,1.923393,-0.960251,-0.692256,-0.059431,0.006788,-0.046577
"2018-06-07 00:14:54.265 +0000",1528330494.264864,1.458493,-0.946639,0.901260,0.580728,0.811456,-0.065493,0.000000,0.000000,0.000000,-1,1.949749,-1.419755,-0.785083,-0.081842,-0.012292,-0.143049
"2018-06-07 00:14:54.275 +0000",1528330494.274937,1.402261,-0.954180,0.859028,0.570081,0.815840,-0.096999,0.000000,0.000000,0.000000,-1,2.491868,-2.518608,-1.215476,-0.059858,0.037829,-0.226609
"2018-06-07 00:14:54.285 +0000",1528330494.285011,1.319737,-0.962557,0.801027,0.553506,0.820655,-0.141958,0.000000,0.000000,0.000000,-1,3.179196,-3.654831,-1.538747,0.067893,0.116738,-0.341547
"2018-06-07 00:14:54.295 +0000",1528330494.295084,1.249604,-0.966518,0.750651,0.539109,0.822912,-0.179369,0.000000,0.000000,0.000000,-1,2.302287,-2.444207,-1.020134,0.040343,-0.011618,0.181551
"2018-06-07 00:14:54.305 +0000",1528330494.305157,1.200547,-0.967932,0.716901,0.528579,0.823715,-0.205168,0.000000,0.000000,0.000000,-1,1.623290,-2.120198,-0.723985,-0.006134,-0.304764,0.221586
"2018-06-07 00:14:54.315 +0000",1528330494.315231,1.156016,-0.967905,0.690136,0.518943,0.823699,-0.228504,0.000000,0.000000,0.000000,-1,1.327849,-2.277719,-0.529075,0.008538,-0.262771,0.054966
"2018-06-07 00:14:54.325 +0000",1528330494.325304,1.115969,-0.967205,0.669131,0.509896,0.823303,-0.249351,0.000000,0.000000,0.000000,-1,1.018071,-2.227493,-0.407748,-0.035622,-0.189697,0.152259
"2018-06-07 00:14:54.335 +0000",1528330494.335377,1.084672,-0.967218,0.655672,0.501834,0.823310,-0.265179,0.000000,0.000000,0.000000,-1,0.552829,-1.900926,-0.318605,-0.042072,-0.331961,0.252774
"2018-06-07 00:14:54.345 +0000",1528330494.345451,1.062807,-0.967653,0.647307,0.495603,0.823557,-0.275913,0.000000,0.000000,0.000000,-1,0.363861,-1.360493,-0.260666,-0.058134,-0.245234,0.235813
"2018-06-07 00:14:54.356 +0000",1528330494.355524,1.044170,-0.969769,0.639929,0.488868,0.824755,-0.284225,0.000000,0.000000,0.000000,-1,0.214879,-1.219656,-0.436321,-0.033881,-0.101000,0.091812
"2018-06-07 00:14:54.366 +0000",1528330494.365597,1.027477,-0.974545,0.633667,0.480678,0.827446,-0.290306,0.000000,0.000000,0.000000,-1,-0.005319,-1.123937,-0.633457,0.045872,-0.029473,0.068886
"2018-06-07 00:14:54.376 +0000",1528330494.375671,1.013120,-0.981946,0.629661,0.471252,0.831580,-0.293928,0.000000,0.000000,0.000000,-1,-0.253230,-1.087826,-0.770467,0.081788,-0.016104,0.044691
"2018-06-07 00:14:54.386 +0000",1528330494.385744,1.001252,-0.991025,0.628241,0.461353,0.836588,-0.295416,0.000000,0.000000,0.000000,-1,-0.472529,-1.056463,-0.803219,0.024548,-0.042017,-0.039865
"2018-06-07 00:14:54.396 +0000",1528330494.395817,0.992247,-1.001751,0.629851,0.451134,0.842416,-0.294635,0.000000,0.000000,0.000000,-1,-0.709377,-1.017293,-0.876782,-0.009026,-0.038522,0.041080
"2018-06-07 00:14:54.406 +0000",1528330494.405891,0.986013,-1.014805,0.632974,0.440081,0.849378,-0.291345,0.000000,0.000000,0.000000,-1,-0.886025,-0.798746,-1.015576,0.014234,0.068454,0.100748
"2018-06-07 00:14:54.416 +0000",1528330494.415964,0.982203,-1.030161,0.637217,0.428068,0.857382,-0.285744,0.000000,0.000000,0.000000,-1,-1.091544,-0.743639,-1.204258,0.112505,0.181070,0.080864
"2018-06-07 00:14:54.426 +0000",1528330494.426037,0.978762,-1.048648,0.641351,0.413858,0.866750,-0.278322,0.000000,0.000000,0.000000,-1,-1.211252,-0.676909,-1.489911,0.125601,0.147945,-0.039747
"2018-06-07 00:14:54.436 +0000",1528330494.436111,0.973516,-1.069312,0.641807,0.397495,0.876870,-0.270357,0.000000,0.000000,0.000000,-1,-1.150125,-0.482745,-1.677724,0.029492,0.193794,-0.101347
"2018-06-07 00:14:54.446 +0000",1528330494.446184,0.963411,-1.088230,0.637914,0.381051,0.885807,-0.264843,0.000000,0.000000,0.000000,-1,-0.811179,-0.767541,-1.601883,0.059211,0.142315,-0.123295
"2018-06-07 00:14:54.456 +0000",1528330494.456257,0.948329,-1.106774,0.629013,0.363604,0.894259,-0.260937,0.000000,0.000000,0.000000,-1,-0.746012,-0.603109,-1.765052,-0.041216,0.221311,-0.034305
"2018-06-07 00:14:54.466 +0000",1528330494.466331,0.940429,-1.127857,0.621471,0.346222,0.903496,-0.252630,0.000000,0.000000,0.000000,-1,-1.046856,0.038912,-1.922766,-0.134201,0.042763,0.263907
"2018-06-07 00:14:54.476 +0000",1528330494.476404,0.941116,-1.155182,0.620799,0.326314,0.914869,-0.237761,0.000000,0.000000,0.000000,-1,-1.796789,0.108842,-2.342498,-0.302282,-0.116407,0.303343
"2018-06-07 00:14:54.486 +0000",1528330494.486477,0.950415,-1.199662,0.635150,0.295086,0.931916,-0.210835,0.000000,0.000000,0.000000,-1,-3.557110,-0.623466,-3.488310,-0.832470,-0.604600,0.320881
"2018-06-07 00:14:54.497 +0000",1528330494.496551,1.005006,-1.259262,0.699914,0.258746,0.951865,-0.164315,0.000000,0.000000,0.000000,-1,-5.372385,-0.532546,-3.597907,-1.285754,-0.936438,0.565972
"2018-06-07 00:14:54.507 +0000",1528330494.506624,1.058764,-1.309752,0.753006,0.224981,0.966121,-0.126446,0.000000,0.000000,0.000000,-1,-3.037828,0.531462,-3.685134,-0.780294,0.535496,-0.205860
"2018-06-07 00:14:54.517 +0000",1528330494.516698,1.005987,-1.346880,0.685759,0.187553,0.975035,-0.118846,0.000000,0.000000,0.000000,-1,0.096568,1.584281,-3.977522,0.117303,0.500520,-1.484623
"2018-06-07 00:14:54.527 +0000",1528330494.526771,0.904802,-1.376344,0.553321,0.151926,0.981154,-0.119376,0.000000,0.000000,0.000000,-1,0.614032,3.209924,-3.858885,0.393820,-0.492995,-0.374978
"2018-06-07 00:14:54.537 +0000",1528330494.536844,0.801503,-1.403003,0.407066,0.119967,0.985956,-0.116164,0.000000,0.000000,0.000000,-1,0.043173,4.273390,-3.647960,0.465528,-0.061807,0.125594
"2018-06-07 00:14:54.547 +0000",1528330494.546918,0.684209,-1.424381,0.246276,0.092202,0.989300,-0.113041,0.000000,0.000000,0.000000,-1,0.282128,3.856879,-3.118350,0.664161,0.368610,0.166050
"2018-06-07 00:14:54.557 +0000",1528330494.556991,0.528003,-1.436317,0.061136,0.067538,0.990971,-0.115798,0.000000,0.000000,0.000000,-1,0.479618,2.312032,-2.657542,0.666608,0.101207,0.073409
"2018-06-07 00:14:54.567 +0000",1528330494.567064,0.381909,-1.444383,-0.098103,0.046980,0.992020,-0.116975,0.000000,0.000000,0.000000,-1,0.070938,0.819773,-2.049980,0.530031,-0.028657,0.262376
"2018-06-07 00:14:54.577 +0000",1528330494.577138,0.245606,-1.452090,-0.234009,0.028790,0.992963,-0.114853,0.000000,0.000000,0.000000,-1,-0.284050,-0.437175,-1.761324,0.299366,0.144183,0.072586
"2018-06-07 00:14:54.587 +0000",1528330494.587211,0.088613,-1.457907,-0.380301,0.009967,0.993635,-0.112186,0.000000,0.000000,0.000000,-1,-0.261140,-1.366939,-1.757627,0.024182,0.198824,-0.144451
"2018-06-07 00:14:54.597 +0000",1528330494.597284,-0.089193,-1.458362,-0.541700,-0.009992,0.993686,-0.111731,0.000000,0.000000,0.000000,-1,0.046381,-1.809364,-1.810174,-0.054995,-0.042956,-0.164774
"2018-06-07 00:14:54.607 +0000",1528330494.607358,-0.253285,-1.452194,-0.685768,-0.029645,0.992975,-0.114530,0.000000,0.000000,0.000000,-1,0.395574,-2.171154,-1.691554,-0.037753,-0.124841,-0.163348
"2018-06-07 00:14:54.617 +0000",1528330494.617431,-0.398241,-1.444057,-0.808012,-0.049010,0.991979,-0.116492,0.000000,0.000000,0.000000,-1,0.191653,-2.379393,-1.645440,0.020278,0.028406,-0.089243
"2018-06-07 00:14:54.628 +0000",1528330494.627504,-0.527911,-1.440422,-0.913191,-0.065479,0.991513,-0.112292,0.000000,0.000000,0.000000,-1,-0.433159,-2.562902,-1.230420,0.131443,0.017718,-0.042875
"2018-06-07 00:14:54.638 +0000",1528330494.637578,-0.639406,-1.440287,-0.999941,-0.077646,0.991496,-0.104416,0.000000,0.000000,0.000000,-1,-0.577943,-2.438627,-0.856478,0.066858,0.016683,-0.121445
"2018-06-07 00:14:54.648 +0000",1528330494.647651,-0.716735,-1.439503,-1.057144,-0.085991,0.991393,-0.098692,0.000000,0.000000,0.000000,-1,-0.356885,-1.903475,-0.575759,-0.040382,0.336549,-0.102449
"2018-06-07 00:14:54.658 +0000",1528330494.657724,-0.761903,-1.437760,-1.090996,-0.091553,0.991164,-0.095959,0.000000,0.000000,0.000000,-1,-0.103084,-0.866193,-0.380783,0.007843,0.444582,-0.022007
"2018-06-07 00:14:54.668 +0000",1528330494.667798,-0.773467,-1.436961,-1.099213,-0.093209,0.991057,-0.095460,0.000000,0.000000,0.000000,-1,-0.008491,-0.236069,-0.056473,0.140023,0.326417,-0.062773
"2018-06-07 00:14:54.678 +0000",1528330494.677871,-0.766102,-1.437634,-1.089604,-0.092041,0.991147,-0.095663,0.000000,0.000000,0.000000,-1,0.070438,-0.236912,0.197196,0.151886,0.201297,-0.141626
"2018-06-07 00:14:54.688 +0000",1528330494.687944,-0.738578,-1.438451,-1.057915,-0.088828,0.991255,-0.097561,0.000000,0.000000,0.000000,-1,0.280129,-0.440300,0.408026,0.129356,0.222002,-0.159290
"2018-06-07 00:14:54.698 +0000",1528330494.698018,-0.693215,-1.439240,-1.006639,-0.083814,0.991359,-0.100888,0.000000,0.000000,0.000000,-1,0.397416,-0.560457,0.605327,0.116757,0.220601,-0.125125
"2018-06-07 00:14:54.708 +0000",1528330494.708091,-0.633672,-1.441194,-0.940998,-0.076514,0.991613,-0.104136,0.000000,0.000000,0.000000,-1,0.348207,-0.533098,0.855069,0.108252,0.143107,-0.054617
"2018-06-07 00:14:54.718 +0000",1528330494.718164,-0.554918,-1.445064,-0.857147,-0.066062,0.992106,-0.106570,0.000000,0.000000,0.000000,-1,0.255273,-0.404075,1.178350,0.120216,0.070791,-0.011472
"2018-06-07 00:14:54.728 +0000",1528330494.728238,-0.445852,-1.450104,-0.743921,-0.051913,0.992725,-0.108616,0.000000,0.000000,0.000000,-1,0.221933,-0.313479,1.542258,0.150073,0.008190,-0.008465
"2018-06-07 00:14:54.738 +0000",1528330494.738311,-0.300816,-1.454530,-0.594028,-0.034367,0.993249,-0.110779,0.000000,0.000000,0.000000,-1,0.234149,-0.412555,1.878619,0.146382,-0.096337,-0.040679
"2018-06-07 00:14:54.748 +0000",1528330494.748384,-0.127871,-1.456932,-0.414677,-0.014487,0.993524,-0.112674,0.000000,0.000000,0.000000,-1,0.174972,-0.554075,2.079489,0.067145,-0.204615,-0.024487
"2018-06-07 00:14:54.758 +0000",1528330494.758458,0.027967,-1.458178,-0.251292,0.003142,0.993665,-0.112320,0.000000,0.000000,0.000000,-1,-0.138461,-0.655037,1.601251,-0.098540,-0.244962,0.040864
"2018-06-07 00:14:54.769 +0000",1528330494.768531,0.102303,-1.461878,-0.169415,0.011099,0.994074,-0.108117,0.000000,0.000000,0.000000,-1,-0.520777,-0.720182,0.651066,-0.349127,-0.244700,0.080941
"2018-06-07 00:14:54.779 +0000",1528330494.778604,0.116891,-1.469091,-0.146668,0.011839,0.994832,-0.100819,0.000000,0.000000,0.000000,-1,-0.794256,-0.830322,0.031801,-0.359373,-0.188344,0.033039
"2018-06-07 00:14:54.789 +0000",1528330494.788678,0.105409,-1.477711,-0.147949,0.009778,0.995671,-0.092415,0.000000,0.000000,0.000000,-1,-0.851674,-1.083433,-0.119394,-0.150784,-0.094151,-0.009895
"2018-06-07 00:14:54.799 +0000",1528330494.798751,0.101808,-1.485561,-0.138590,0.008650,0.996370,-0.084670,0.000000,0.000000,0.000000,-1,-0.747787,-1.338585,0.061410,0.016909,-0.054353,-0.023088
"2018-06-07 00:14:54.809 +0000",1528330494.808825,0.126548,-1.491369,-0.100704,0.010011,0.996847,-0.078686,0.000000,0.000000,0.000000,-1,-0.560590,-1.235837,0.291468,0.061385,-0.027212,0.013393
"2018-06-07 00:14:54.819 +0000",1528330494.818898,0.169804,-1.495154,-0.048738,0.012766,0.997140,-0.074458,0.000000,0.000000,0.000000,-1,-0.383998,-0.698757,0.344257,0.036871,0.051901,0.087031
"2018-06-07 00:14:54.829 +0000",1528330494.828971,0.214424,-1.496572,-0.001060,0.015774,0.997247,-0.072433,0.000000,0.000000,0.000000,-1,-0.146835,-0.160028,0.305482,0.050236,0.124717,0.056808
"2018-06-07 00:14:54.839 +0000",1528330494.839045,0.252196,-1.496222,0.035307,0.018585,0.997221,-0.072123,0.000000,0.000000,0.000000,-1,-0.001900,0.245657,0.256851,0.110352,0.126009,0.038981
"2018-06-07 00:14:54.849 +0000",1528330494.849118,0.288540,-1.495640,0.067114,0.021359,0.997177,-0.071958,0.000000,0.000000,0.000000,-1,-0.015710,0.508036,0.244738,0.186527,0.090103,0.053403
"2018-06-07 00:14:54.859 +0000",1528330494.859191,0.328198,-1.495193,0.102003,0.024339,0.997143,-0.071477,0.000000,0.000000,0.000000,-1,-0.042098,0.445287,0.269356,0.211898,0.015155,0.008641
"2018-06-07 00:14:54.869 +0000",1528330494.869265,0.371131,-1.495162,0.141605,0.027396,0.997141,-0.070396,0.000000,0.000000,0.000000,-1,-0.126073,0.313281,0.278845,0.177057,-0.003733,-0.001168
"2018-06-07 00:14:54.879 +0000",1528330494.879338,0.417187,-1.495919,0.185399,0.030302,0.997198,-0.068371,0.000000,0.000000,0.000000,-1,-0.209932,0.198912,0.271174,0.145052,-0.000997,0.016002
"2018-06-07 00:14:54.889 +0000",1528330494.889411,0.464679,-1.496953,0.232273,0.033052,0.997275,-0.065934,0.000000,0.000000,0.000000,-1,-0.258052,0.056101,0.263340,0.104491,0.043298,-0.032516
"2018-06-07 00:14:54.899 +0000",1528330494.899485,0.514155,-1.498308,0.281853,0.035607,0.997374,-0.063041,0.000000,0.000000,0.000000,-1,-0.286259,-0.025171,0.253487,0.096137,0.030351,-0.017755
"2018-06-07 00:14:54.910 +0000",1528330494.909558,0.562342,-1.498993,0.331117,0.038238,0.997423,-0.060674,0.000000,0.000000,0.000000,-1,-0.220178,-0.109609,0.275679,0.124421,-0.011812,-0.042018
"2018-06-07 00:14:54.920 +0000",1528330494.919631,0.613294,-1.498597,0.382810,0.041506,0.997395,-0.058972,0.000000,0.000000,0.000000,-1,-0.165155,-0.023039,0.348948,0.181974,-0.153004,0.010602
"2018-06-07 00:14:54.930 +0000",1528330494.929705,0.668565,-1.497489,0.437046,0.045387,0.997314,-0.057458,0.000000,0.000000,0.000000,-1,-0.129866,0.158054,0.381664,0.168007,-0.170990,0.037850
"2018-06-07 00:14:54.940 +0000",1528330494.939778,0.714742,-1.495624,0.480886,0.049211,0.997176,-0.056707,0.000000,0.000000,0.000000,-1,-0.048932,0.269244,0.360289,0.090422,-0.048003,-0.028788
"2018-06-07 00:14:54.950 +0000",1528330494.949851,0.756684,-1.493831,0.519686,0.052772,0.997040,-0.055893,0.000000,0.000000,0.000000,-1,-0.076067,0.328573,0.330406,0.087258,0.016068,-0.045884
"2018-06-07 00:14:54.960 +0000",1528330494.959925,0.798488,-1.492429,0.558879,0.056062,0.996931,-0.054613,0.000000,0.000000,0.000000,-1,-0.126243,0.241796,0.309831,0.116790,0.013247,-0.055983
"2018-06-07 00:14:54.970 +0000",1528330494.969998,0.848135,-1.488933,0.607334,0.061316,0.996651,-0.054068,0.000000,0.000000,0.000000,-1,-0.200427,0.085838,0.278353,0.112588,0.087440,-0.040124
"2018-06-07 00:14:54.980 +0000",1528330494.980071,0.895438,-1.486692,0.654920,0.065550,0.996465,-0.052506,0.000000,0.000000,0.000000,-1,-0.227421,-0.043669,0.253298,0.105318,0.160975,-0.028228
"2018-06-07 00:14:54.990 +0000",1528330494.990145,0.937575,-1.482846,0.697573,0.070794,0.996135,-0.051967,0.000000,0.000000,0.000000,-1,-0.195974,-0.020551,0.258672,0.151832,0.009023,-0.035252
"2018-06-07 00:14:55.000 +0000",1528330495.000218,0.997067,-1.477498,0.756125,0.078233,0.995651,-0.050557,0.000000,0.000000,0.000000,-1,-0.143569,0.137695,0.253634,0.160247,-0.139724,-0.012507
"2018-06-07 00:14:55.010 +0000",1528330495.010291,1.050217,-1.472716,0.806814,0.084940,0.995194,-0.048699,0.000000,0.000000,0.000000,-1,-0.100711,0.273896,0.263613,0.142859,-0.156312,0.010109
"2018-06-07 00:14:55.020 +0000",1528330495.020365,1.074904,-1.469385,0.828544,0.089033,0.994862,-0.048165,0.000000,0.000000,0.000000,-1,-0.125949,0.304563,0.263760,0.119326,-0.120229,0.030801
"2018-06-07 00:14:55.030 +0000",1528330495.030438,1.097602,-1.466578,0.848532,0.092590,0.994574,-0.047405,0.000000,0.000000,0.000000,-1,-0.168766,0.270530,0.235792,0.076981,-0.014914,0.043224
"2018-06-07 00:14:55.041 +0000",1528330495.040511,1.121205,-1.463383,0.870359,0.096546,0.994237,-0.046588,0.000000,0.000000,0.000000,-1,-0.195911,0.161808,0.228009,0.064526,-0.005910,0.005145
"2018-06-07 00:14:55.051 +0000",1528330495.050585,1.145071,-1.460982,0.893367,0.099803,0.993976,-0.045256,0.000000,0.000000,0.000000,-1,-0.209098,0.088437,0.176194,0.055135,0.006146,-0.015443
"2018-06-07 00:14:55.061 +0000",1528330495.060658,1.167102,-1.459481,0.914462,0.102149,0.993811,-0.043634,0.000000,0.000000,0.000000,-1,-0.199274,0.122716,0.123565,0.044854,0.022028,-0.010932
"2018-06-07 00:14:55.071 +0000",1528330495.070731,1.189162,-1.456667,0.934632,0.105682,0.993494,-0.042411,0.000000,0.000000,0.000000,-1,-0.184558,0.230400,0.108786,0.059921,-0.025629,-0.000008
"2018-06-07 00:14:55.081 +0000",1528330495.080805,1.215469,-1.452609,0.958053,0.110541,0.993024,-0.041019,0.000000,0.000000,0.000000,-1,-0.169935,0.314968,0.108998,0.053812,-0.067060,0.021579
"2018-06-07 00:14:55.091 +0000",1528330495.090878,1.246495,-1.448349,0.985711,0.115770,0.992513,-0.038918,0.000000,0.000000,0.000000,-1,-0.185768,0.344537,0.115574,0.026549,-0.071431,0.027032
"2018-06-07 00:14:55.101 +0000",1528330495.100952,1.279875,-1.445194,1.015874,0.120004,0.992122,-0.035931,0.000000,0.000000,0.000000,-1,-0.222503,0.315892,0.115575,0.003882,-0.046673,0.011105
"2018-06-07 00:14:55.111 +0000",1528330495.111025,1.312619,-1.443819,1.045909,0.122435,0.991949,-0.032331,0.000000,0.000000,0.000000,-1,-0.254926,0.267550,0.103677,-0.010160,-0.005057,-0.002977
"2018-06-07 00:14:55.121 +0000",1528330495.121098,1.336074,-1.442505,1.067034,0.124427,0.991782,-0.029754,0.000000,0.000000,0.000000,-1,-0.244337,0.239070,0.096040,-0.021766,-0.003882,-0.045105
"2018-06-07 00:14:55.131 +0000",1528330495.131172,1.351172,-1.441278,1.080472,0.126049,0.991624,-0.028137,0.000000,0.000000,0.000000,-1,-0.205328,0.165669,0.086056,-0.025784,-0.007631,-0.081772
"2018-06-07 00:14:55.141 +0000",1528330495.141246,1.367644,-1.440676,1.095230,0.127080,0.991546,-0.026178,0.000000,0.000000,0.000000,-1,-0.229344,0.206318,0.062565,-0.011602,-0.006134,-0.051108
"2018-06-07 00:14:55.151 +0000",1528330495.151319,1.389371,-1.439842,1.114512,0.128432,0.991438,-0.023560,0.000000,0.000000,0.000000,-1,-0.266105,0.273215,0.054239,0.026567,0.005251,-0.041336
"2018-06-07 00:14:55.161 +0000",1528330495.161393,1.415214,-1.438776,1.137717,0.130042,0.991298,-0.020397,0.000000,0.000000,0.000000,-1,-0.277746,0.277529,0.065035,0.059380,-0.011516,-0.082249
"2018-06-07 00:14:55.171 +0000",1528330495.171466,1.440768,-1.437820,1.160769,0.131460,0.991172,-0.017190,0.000000,0.000000,0.000000,-1,-0.266358,0.260995,0.088625,0.077219,-0.034781,-0.103568
"2018-06-07 00:14:55.182 +0000",1528330495.181539,1.460951,-1.437158,1.178377,0.132431,0.991084,-0.014606,0.000000,0.000000,0.000000,-1,-0.240209,0.280778,0.100454,0.083786,-0.054652,-0.107556
"2018-06-07 00:14:55.192 +0000",1528330495.191613,1.476967,-1.436843,1.191540,0.132958,0.991042,-0.012512,0.000000,0.000000,0.000000,-1,-0.220268,0.313775,0.098353,0.089454,-0.048430,-0.097061
"2018-06-07 00:14:55.202 +0000",1528330495.201686,1.484366,-1.436741,1.195748,0.133149,0.991028,-0.011537,0.000000,0.000000,0.000000,-1,-0.202354,0.347905,0.086580,0.099609,-0.013794,-0.098540
"2018-06-07 00:14:55.212 +0000",1528330495.211759,1.482113,-1.436847,1.190392,0.133016,0.991042,-0.011827,0.000000,0.000000,0.000000,-1,-0.159076,0.323979,0.061671,0.117975,0.011476,-0.127729
"2018-06-07 00:14:55.222 +0000",1528330495.221833,1.481530,-1.436657,1.187301,0.133197,0.991017,-0.011922,0.000000,0.000000,0.000000,-1,-0.103343,0.248384,0.062399,0.160489,0.001598,-0.155238
"2018-06-07 00:14:55.232 +0000",1528330495.231906,1.479284,-1.435398,1.183358,0.134411,0.990848,-0.012335,0.000000,0.000000,0.000000,-1,-0.056074,0.160651,0.072792,0.190860,0.003339,-0.159311
"2018-06-07 00:14:55.242 +0000",1528330495.241979,1.469736,-1.433473,1.172991,0.136186,0.990586,-0.013810,0.000000,0.000000,0.000000,-1,0.000800,0.068634,0.063789,0.200377,0.002532,-0.166350
"2018-06-07 00:14:55.252 +0000",1528330495.252053,1.454989,-1.431578,1.158382,0.137832,0.990325,-0.016034,0.000000,0.000000,0.000000,-1,0.059987,-0.028753,0.027874,0.199647,0.006532,-0.181232
"2018-06-07 00:14:55.262 +0000",1528330495.262126,1.434669,-1.429911,1.138963,0.139115,0.990092,-0.019055,0.000000,0.000000,0.000000,-1,0.143384,-0.102979,-0.017710,0.190963,-0.008189,-0.192401
"2018-06-07 00:14:55.272 +0000",1528330495.272199,1.409989,-1.428378,1.115169,0.140102,0.989876,-0.022726,0.000000,0.000000,0.000000,-1,0.226676,-0.077313,-0.061928,0.165669,-0.021309,-0.184870
"2018-06-07 00:14:55.282 +0000",1528330495.282273,1.379914,-1.426752,1.085034,0.140936,0.989643,-0.027234,0.000000,0.000000,0.000000,-1,0.328737,0.004345,-0.095269,0.138529,-0.021550,-0.168857
"2018-06-07 00:14:55.292 +0000",1528330495.292346,1.338385,-1.424521,1.044088,0.141832,0.989321,-0.033570,0.000000,0.000000,0.000000,-1,0.490512,-0.119305,-0.083091,0.172392,-0.044527,-0.210509
"2018-06-07 00:14:55.302 +0000",1528330495.302419,1.288262,-1.421097,0.995928,0.143224,0.988816,-0.041578,0.000000,0.000000,0.000000,-1,0.600994,-0.260576,-0.091285,0.207194,-0.061295,-0.180743
"2018-06-07 00:14:55.312 +0000",1528330495.312493,1.238399,-1.416804,0.948904,0.144986,0.988167,-0.050050,0.000000,0.000000,0.000000,-1,0.640844,-0.339580,-0.073320,0.237339,-0.049629,-0.115279
"2018-06-07 00:14:55.323 +0000",1528330495.322566,1.190335,-1.411956,0.904238,0.146862,0.987411,-0.058737,0.000000,0.000000,0.000000,-1,0.670168,-0.395560,-0.055264,0.238987,-0.033996,-0.090799
"2018-06-07 00:14:55.333 +0000",1528330495.332639,1.141955,-1.406964,0.859860,0.148331,0.986610,-0.067820,0.000000,0.000000,0.000000,-1,0.724719,-0.471230,-0.037323,0.215317,0.031670,-0.097677
"2018-06-07 00:14:55.343 +0000",1528330495.342713,1.091787,-1.401619,0.815082,0.149421,0.985724,-0.077602,0.000000,0.000000,0.000000,-1,0.805448,-0.641328,0.002872,0.201958,0.134073,-0.117619
"2018-06-07 00:14:55.353 +0000",1528330495.352786,1.040420,-1.397131,0.771410,0.149053,0.984958,-0.087408,0.000000,0.000000,0.000000,-1,0.885223,-0.886064,0.039625,0.183314,0.284940,-0.118097
"2018-06-07 00:14:55.363 +0000",1528330495.362859,0.985141,-1.391349,0.725082,0.148740,0.983942,-0.098657,0.000000,0.000000,0.000000,-1,1.031122,-0.970283,0.062710,0.124697,0.432638,-0.101981
"2018-06-07 00:14:55.373 +0000",1528330495.372933,0.922897,-1.383735,0.672175,0.148285,0.982555,-0.112236,0.000000,0.000000,0.000000,-1,1.291676,-1.038715,0.061914,0.066498,0.496037,-0.148857
"2018-06-07 00:14:55.383 +0000",1528330495.383006,0.849650,-1.373241,0.608993,0.147410,0.980549,-0.129588,0.000000,0.000000,0.000000,-1,1.693143,-1.141810,0.043485,0.064993,0.484523,-0.225500
"2018-06-07 00:14:55.393 +0000",1528330495.393079,0.767554,-1.358416,0.537121,0.146365,0.977532,-0.151684,0.000000,0.000000,0.000000,-1,2.199212,-1.154787,0.070255,0.079984,0.380012,-0.251178
"2018-06-07 00:14:55.403 +0000",1528330495.403153,0.683293,-1.337774,0.462289,0.145790,0.972973,-0.179077,0.000000,0.000000,0.000000,-1,2.764635,-1.105273,0.156231,0.086906,0.269550,-0.250214
"2018-06-07 00:14:55.413 +0000",1528330495.413226,0.602937,-1.310612,0.390737,0.145882,0.966343,-0.211897,0.000000,0.000000,0.000000,-1,3.331092,-1.097503,0.249613,0.091957,0.208035,-0.253969
"2018-06-07 00:14:55.423 +0000",1528330495.423300,0.529594,-1.278048,0.327040,0.145788,0.957454,-0.249052,0.000000,0.000000,0.000000,-1,3.745888,-1.239181,0.278369,0.047694,0.202061,-0.220477
"2018-06-07 00:14:55.433 +0000",1528330495.433373,0.462901,-1.241855,0.271070,0.144253,0.946385,-0.289045,0.000000,0.000000,0.000000,-1,4.032437,-1.353241,0.180573,-0.031170,0.250133,-0.149142
"2018-06-07 00:14:55.443 +0000",1528330495.443446,0.401343,-1.204275,0.221767,0.139999,0.933580,-0.329892,0.000000,0.000000,0.000000,-1,4.073948,-1.586200,0.001243,-0.100570,0.288573,-0.056354
"2018-06-07 00:14:55.454 +0000",1528330495.453520,0.343397,-1.168221,0.179706,0.131910,0.920055,-0.368914,0.000000,0.000000,0.000000,-1,3.825928,-1.984518,-0.204796,-0.159818,0.269413,0.042422
"2018-06-07 00:14:55.464 +0000",1528330495.463593,0.288660,-1.135451,0.145352,0.120051,0.906725,-0.404274,0.000000,0.000000,0.000000,-1,3.414534,-2.425339,-0.330986,-0.181788,0.219633,0.091378
"2018-06-07 00:14:55.474 +0000",1528330495.473666,0.238343,-1.106424,0.118386,0.105736,0.894103,-0.435200,0.000000,0.000000,0.000000,-1,2.977092,-2.597598,-0.381041,-0.164559,0.186753,0.140873
"2018-06-07 00:14:55.484 +0000",1528330495.483740,0.195579,-1.080473,0.097842,0.091514,0.882181,-0.461933,0.000000,0.000000,0.000000,-1,2.639399,-2.341817,-0.342952,-0.159492,0.193228,0.251361
"2018-06-07 00:14:55.494 +0000",1528330495.493813,0.164080,-1.057202,0.082832,0.080253,0.870984,-0.484712,0.000000,0.000000,0.000000,-1,2.324252,-1.626076,-0.288517,-0.190711,0.228442,0.374757
"2018-06-07 00:14:55.504 +0000",1528330495.503886,0.142293,-1.036629,0.070157,0.072201,0.860693,-0.503979,0.000000,0.000000,0.000000,-1,2.050712,-0.908770,-0.318073,-0.275722,0.262217,0.456494
"2018-06-07 00:14:55.514 +0000",1528330495.513960,0.126677,-1.018221,0.059450,0.066313,0.851176,-0.520675,0.000000,0.000000,0.000000,-1,1.832763,-0.587852,-0.288674,-0.235578,0.260687,0.464721
"2018-06-07 00:14:55.524 +0000",1528330495.524033,0.114066,-1.001204,0.050876,0.061381,0.842121,-0.535784,0.000000,0.000000,0.000000,-1,1.709393,-0.511574,-0.235463,-0.147318,0.256542,0.454027
"2018-06-07 00:14:55.534 +0000",1528330495.534106,0.103215,-0.984258,0.043162,0.057026,0.832862,-0.550535,0.000000,0.000000,0.000000,-1,1.728202,-0.420412,-0.234165,-0.076679,0.236062,0.404066
"2018-06-07 00:14:55.544 +0000",1528330495.544180,0.093984,-0.966979,0.037591,0.053285,0.823174,-0.565283,0.000000,0.000000,0.000000,-1,1.735561,-0.468190,-0.092336,0.079055,0.174766,0.349157
"2018-06-07 00:14:55.554 +0000",1528330495.554253,0.088180,-0.949597,0.035961,0.051255,0.813181,-0.579749,0.000000,0.000000,0.000000,-1,1.723458,-0.428458,0.111105,0.206466,0.090933,0.331748
"2018-06-07 00:14:55.564 +0000",1528330495.564326,0.085717,-0.932446,0.037093,0.051014,0.803080,-0.593684,0.000000,0.000000,0.000000,-1,1.670879,-0.304001,0.240664,0.219524,-0.010752,0.281840
"2018-06-07 00:14:55.574 +0000",1528330495.574400,0.085674,-0.916510,0.039809,0.052077,0.793483,-0.606361,0.000000,0.000000,0.000000,-1,1.517931,-0.191651,0.311258,0.192918,-0.097667,0.268623
"2018-06-07 00:14:55.584 +0000",1528330495.584473,0.087070,-0.902666,0.043450,0.053873,0.784981,-0.617172,0.000000,0.000000,0.000000,-1,1.291792,-0.140831,0.346345,0.137914,-0.183037,0.291626
"2018-06-07 00:14:55.595 +0000",1528330495.594546,0.089804,-0.891049,0.047989,0.056375,0.777732,-0.626063,0.000000,0.000000,0.000000,-1,1.076031,-0.054904,0.393342,0.063208,-0.252509,0.305232
"2018-06-07 00:14:55.605 +0000",1528330495.604620,0.092203,-0.881216,0.052553,0.058578,0.771513,-0.633511,0.000000,0.000000,0.000000,-1,0.907259,-0.127682,0.359096,-0.027404,-0.303557,0.305996
"2018-06-07 00:14:55.615 +0000",1528330495.614693,0.094429,-0.873029,0.056736,0.060582,0.766279,-0.639646,0.000000,0.000000,0.000000,-1,0.738268,-0.094042,0.340219,-0.133000,-0.348096,0.349668
"2018-06-07 00:14:55.625 +0000",1528330495.624766,0.097211,-0.866868,0.061341,0.062818,0.762306,-0.644161,0.000000,0.000000,0.000000,-1,0.527010,-0.063953,0.354774,-0.177839,-0.366798,0.386135
"2018-06-07 00:14:55.635 +0000",1528330495.634840,0.100420,-0.862822,0.066097,0.065193,0.759681,-0.647020,0.000000,0.000000,0.000000,-1,0.318090,-0.031531,0.338136,-0.211708,-0.359763,0.410967
"2018-06-07 00:14:55.645 +0000",1528330495.644913,0.103901,-0.860757,0.070661,0.067607,0.758336,-0.648348,0.000000,0.000000,0.000000,-1,0.129249,0.011997,0.304275,-0.205791,-0.349080,0.421465
"2018-06-07 00:14:55.655 +0000",1528330495.654986,0.107556,-0.860224,0.074706,0.070020,0.757989,-0.648498,0.000000,0.000000,0.000000,-1,-0.006945,0.074415,0.250986,-0.170667,-0.335992,0.406067
"2018-06-07 00:14:55.665 +0000",1528330495.665060,0.111250,-0.860782,0.077961,0.072368,0.758353,-0.647815,0.000000,0.000000,0.000000,-1,-0.101051,0.138088,0.187923,-0.133190,-0.329153,0.379825
"2018-06-07 00:14:55.675 +0000",1528330495.675133,0.115228,-0.862230,0.080475,0.074818,0.759296,-0.646430,0.000000,0.000000,0.000000,-1,-0.180550,0.234699,0.133529,-0.095051,-0.345340,0.380515
"2018-06-07 00:14:55.685 +0000",1528330495.685206,0.120008,-0.864591,0.082433,0.077693,0.760830,-0.644283,0.000000,0.000000,0.000000,-1,-0.271691,0.353196,0.087829,-0.080119,-0.384884,0.400799
"2018-06-07 00:14:55.695 +0000",1528330495.695280,0.124972,-0.868085,0.083930,0.080558,0.763093,-0.641248,0.000000,0.000000,0.000000,-1,-0.384791,0.379425,0.040836,-0.094443,-0.426484,0.400434
"2018-06-07 00:14:55.705 +0000",1528330495.705353,0.129080,-0.872876,0.084949,0.082720,0.766181,-0.637279,0.000000,0.000000,0.000000,-1,-0.513550,0.305714,-0.006412,-0.110979,-0.467032,0.380199
"2018-06-07 00:14:55.715 +0000",1528330495.715426,0.131574,-0.879188,0.085594,0.083673,0.770222,-0.632264,0.000000,0.000000,0.000000,-1,-0.667461,0.157277,-0.051668,-0.111902,-0.501591,0.354722
"2018-06-07 00:14:55.725 +0000",1528330495.725500,0.132264,-0.887259,0.085920,0.083287,0.775343,-0.626024,0.000000,0.000000,0.000000,-1,-0.841330,0.010979,-0.096873,-0.099110,-0.520476,0.318529
"2018-06-07 00:14:55.736 +0000",1528330495.735573,0.132055,-0.897159,0.086338,0.082141,0.781558,-0.618401,0.000000,0.000000,0.000000,-1,-1.023974,-0.067448,-0.102061,-0.062305,-0.520068,0.277306
"2018-06-07 00:14:55.746 +0000",1528330495.745646,0.132425,-0.908984,0.087729,0.081144,0.788880,-0.609167,0.000000,0.000000,0.000000,-1,-1.227053,-0.070408,-0.054276,-0.006772,-0.498871,0.224935
"2018-06-07 00:14:55.756 +0000",1528330495.755720,0.134730,-0.922887,0.091065,0.081067,0.797347,-0.598051,0.000000,0.000000,0.000000,-1,-1.450497,-0.018731,0.039967,0.047229,-0.452071,0.168654
"2018-06-07 00:14:55.766 +0000",1528330495.765793,0.140157,-0.938752,0.096930,0.082533,0.806821,-0.585002,0.000000,0.000000,0.000000,-1,-1.656356,0.108632,0.160206,0.097810,-0.378248,0.132136
"2018-06-07 00:14:55.776 +0000",1528330495.775866,0.149663,-0.955949,0.105643,0.086009,0.816861,-0.570386,0.000000,0.000000,0.000000,-1,-1.789824,0.286677,0.284729,0.139013,-0.298230,0.111829
"2018-06-07 00:14:55.786 +0000",1528330495.785940,0.163309,-0.973752,0.117181,0.091405,0.827001,-0.554720,0.000000,0.000000,0.000000,-1,-1.860159,0.452876,0.396165,0.146907,-0.228933,0.102785
"2018-06-07 00:14:55.796 +0000",1528330495.796013,0.180417,-0.991781,0.131020,0.098190,0.837002,-0.538318,0.000000,0.000000,0.000000,-1,-1.903810,0.588628,0.455820,0.109406,-0.166576,0.121189
"2018-06-07 00:14:55.806 +0000",1528330495.806086,0.200003,-1.009961,0.146472,0.105673,0.846811,-0.521291,0.000000,0.000000,0.000000,-1,-1.935538,0.668600,0.474411,0.055033,-0.114297,0.156011
"2018-06-07 00:14:55.816 +0000",1528330495.816160,0.221158,-1.028201,0.163384,0.113268,0.856371,-0.503784,0.000000,0.000000,0.000000,-1,-1.961867,0.664095,0.484139,0.006483,-0.067797,0.180450
"2018-06-07 00:14:55.826 +0000",1528330495.826233,0.243490,-1.046443,0.181814,0.120703,0.865648,-0.485885,0.000000,0.000000,0.000000,-1,-1.977635,0.634389,0.489467,-0.034918,-0.016496,0.196105
"2018-06-07 00:14:55.836 +0000",1528330495.836307,0.267066,-1.064332,0.201679,0.128016,0.874465,-0.467892,0.000000,0.000000,0.000000,-1,-1.955596,0.627850,0.492625,-0.060481,0.020997,0.192288
"2018-06-07 00:14:55.846 +0000",1528330495.846380,0.292079,-1.081752,0.222870,0.135271,0.882782,-0.449886,0.000000,0.000000,0.000000,-1,-1.934531,0.636726,0.483996,-0.073137,0.043716,0.187252
"2018-06-07 00:14:55.856 +0000",1528330495.856453,0.317933,-1.098972,0.244677,0.142082,0.890741,-0.431733,0.000000,0.000000,0.000000,-1,-1.931969,0.645772,0.422705,-0.124748,0.073111,0.175447
"2018-06-07 00:14:55.867 +0000",1528330495.866527,0.343614,-1.116264,0.266467,0.147910,0.898466,-0.413377,0.000000,0.000000,0.000000,-1,-1.939635,0.593432,0.333291,-0.199195,0.097368,0.112336
"2018-06-07 00:14:55.877 +0000",1528330495.876600,0.368023,-1.133673,0.287897,0.152304,0.905973,-0.394989,0.000000,0.000000,0.000000,-1,-1.937690,0.472010,0.231823,-0.264044,0.110583,0.012619
"2018-06-07 00:14:55.887 +0000",1528330495.886673,0.390852,-1.150835,0.308767,0.155334,0.913105,-0.376976,0.000000,0.000000,0.000000,-1,-1.885480,0.352842,0.149608,-0.327880,0.109082,-0.093544
"2018-06-07 00:14:55.897 +0000",1528330495.896747,0.412046,-1.167204,0.329151,0.157280,0.919656,-0.359854,0.000000,0.000000,0.000000,-1,-1.786257,0.213897,0.102724,-0.349373,0.086981,-0.188882
"2018-06-07 00:14:55.907 +0000",1528330495.906820,0.432191,-1.182478,0.349852,0.158594,0.925547,-0.343817,0.000000,0.000000,0.000000,-1,-1.686357,0.069258,0.105301,-0.326105,0.050832,-0.239618
"2018-06-07 00:14:55.917 +0000",1528330495.916893,0.452484,-1.196951,0.371704,0.159665,0.930930,-0.328445,0.000000,0.000000,0.000000,-1,-1.630708,-0.012973,0.117842,-0.296185,0.039224,-0.234360
"2018-06-07 00:14:55.927 +0000",1528330495.926967,0.473792,-1.210539,0.394658,0.160839,0.935806,-0.313683,0.000000,0.000000,0.000000,-1,-1.549956,-0.002931,0.132745,-0.259457,0.025208,-0.219856
"2018-06-07 00:14:55.937 +0000",1528330495.937040,0.496367,-1.222825,0.417634,0.162391,0.940067,-0.299840,0.000000,0.000000,0.000000,-1,-1.406171,0.147881,0.128552,-0.228431,0.015210,-0.211375
"2018-06-07 00:14:55.947 +0000",1528330495.947113,0.519926,-1.233399,0.439236,0.164462,0.943619,-0.287288,0.000000,0.000000,0.000000,-1,-1.222472,0.374590,0.114808,-0.201862,0.017516,-0.195652
"2018-06-07 00:14:55.957 +0000",1528330495.957187,0.543477,-1.242437,0.459146,0.166765,0.946573,-0.276025,0.000000,0.000000,0.000000,-1,-1.064884,0.483784,0.096479,-0.170488,0.050223,-0.219168
"2018-06-07 00:14:55.967 +0000",1528330495.967260,0.564602,-1.250644,0.477536,0.168396,0.949187,-0.265869,0.000000,0.000000,0.000000,-1,-0.982459,0.311847,0.052764,-0.147598,0.201325,-0.275544
"2018-06-07 00:14:55.977 +0000",1528330495.977333,0.583303,-1.258796,0.495499,0.169070,0.951721,-0.256206,0.000000,0.000000,0.000000,-1,-0.985168,0.111084,0.019917,-0.113635,0.389084,-0.190937
"2018-06-07 00:14:55.987 +0000",1528330495.987407,0.600831,-1.266779,0.513971,0.169235,0.954141,-0.246929,0.000000,0.000000,0.000000,-1,-0.948296,-0.035930,0.023707,-0.089401,0.476629,-0.023136
"2018-06-07 00:14:55.997 +0000",1528330495.997480,0.618526,-1.273031,0.531977,0.170114,0.955995,-0.239030,0.000000,0.000000,0.000000,-1,-0.757889,0.114660,0.103307,-0.052835,0.443999,0.111116
"2018-06-07 00:14:56.008 +0000",1528330496.007553,0.640011,-1.276392,0.549039,0.173291,0.956975,-0.232742,0.000000,0.000000,0.000000,-1,-0.494770,0.669199,0.238773,0.040348,0.341792,0.285095
"2018-06-07 00:14:56.018 +0000",1528330496.017627,0.667996,-1.276671,0.567124,0.179570,0.957056,-0.227593,0.000000,0.000000,0.000000,-1,-0.295225,1.154064,0.454856,0.126125,0.205954,0.447151
"2018-06-07 00:14:56.028 +0000",1528330496.027700,0.698682,-1.274691,0.588837,0.187687,0.956480,-0.223427,0.000000,0.000000,0.000000,-1,-0.236551,0.837253,0.649567,0.122494,0.083422,0.440559
"2018-06-07 00:14:56.038 +0000",1528330496.037773,0.720378,-1.271706,0.610678,0.194372,0.955605,-0.221447,0.000000,0.000000,0.000000,-1,-0.161183,-0.167084,0.670137,0.002619,0.065223,0.112209
"2018-06-07 00:14:56.048 +0000",1528330496.047847,0.732428,-1.267785,0.626712,0.199530,0.954442,-0.221873,0.000000,0.000000,0.000000,-1,0.020284,-0.266087,0.576928,-0.030875,0.235285,-0.165777
"2018-06-07 00:14:56.058 +0000",1528330496.057920,0.743736,-1.265466,0.637445,0.203524,0.953748,-0.221231,0.000000,0.000000,0.000000,-1,-0.106333,0.204481,0.320432,0.008573,0.759906,-0.134070
"2018-06-07 00:14:56.068 +0000",1528330496.067993,0.757815,-1.267541,0.651344,0.205258,0.954369,-0.216906,0.000000,0.000000,0.000000,-1,-0.533169,-0.023134,0.127131,0.144382,1.317680,-0.071089
"2018-06-07 00:14:56.078 +0000",1528330496.078067,0.763566,-1.268874,0.662193,0.205623,0.954767,-0.214803,0.000000,0.000000,0.000000,-1,-0.128588,-0.582051,0.169756,0.312627,1.547675,-0.548243
"2018-06-07 00:14:56.088 +0000",1528330496.088140,0.753123,-1.259835,0.652377,0.209262,0.952040,-0.223225,0.000000,0.000000,0.000000,-1,1.196865,0.207386,0.491711,0.563626,1.198030,-1.028331
"2018-06-07 00:14:56.098 +0000",1528330496.098213,0.742308,-1.242257,0.628043,0.218115,0.946515,-0.237772,0.000000,0.000000,0.000000,-1,1.888804,1.483210,0.637974,0.684869,0.422107,-0.458914
"2018-06-07 00:14:56.108 +0000",1528330496.108287,0.736464,-1.226149,0.605403,0.226934,0.941195,-0.250306,0.000000,0.000000,0.000000,-1,1.566457,1.452191,0.491258,0.560327,-0.001711,0.128480
"2018-06-07 00:14:56.118 +0000",1528330496.118360,0.732293,-1.213509,0.592132,0.233824,0.936849,-0.260077,0.000000,0.000000,0.000000,-1,1.147927,0.575952,0.527315,0.431063,-0.231054,0.289893
"2018-06-07 00:14:56.128 +0000",1528330496.128433,0.724261,-1.201992,0.585124,0.238861,0.932759,-0.270011,0.000000,0.000000,0.000000,-1,0.995041,-0.354514,0.581968,0.172333,-0.332417,0.215186
"2018-06-07 00:14:56.139 +0000",1528330496.138507,0.711564,-1.190888,0.579128,0.242162,0.928699,-0.280849,0.000000,0.000000,0.000000,-1,0.971567,-0.779263,0.545290,-0.111242,-0.362430,0.229182
"2018-06-07 00:14:56.149 +0000",1528330496.148579,0.699003,-1.181135,0.573603,0.244432,0.925038,-0.290787,0.000000,0.000000,0.000000,-1,0.817875,-0.693634,0.442629,-0.223482,-0.391469,0.371980
"2018-06-07 00:14:56.159 +0000",1528330496.158652,0.691668,-1.174553,0.571165,0.246171,0.922517,-0.297256,0.000000,0.000000,0.000000,-1,0.462546,-0.443800,0.316168,-0.263138,-0.416902,0.490600
"2018-06-07 00:14:56.169 +0000",1528330496.168726,0.689429,-1.172357,0.573129,0.246792,0.921668,-0.299369,0.000000,0.000000,0.000000,-1,-0.002544,-0.421342,0.149498,-0.279934,-0.386695,0.492316
"2018-06-07 00:14:56.179 +0000",1528330496.178799,0.688919,-1.175761,0.579508,0.244644,0.922983,-0.297071,0.000000,0.000000,0.000000,-1,-0.542415,-0.724838,-0.086791,-0.255798,-0.243738,0.423536
"2018-06-07 00:14:56.189 +0000",1528330496.188872,0.688448,-1.183278,0.588753,0.240089,0.925850,-0.291820,0.000000,0.000000,0.000000,-1,-0.846820,-0.912822,-0.225399,-0.138115,-0.044975,0.290645
"2018-06-07 00:14:56.199 +0000",1528330496.198946,0.689484,-1.190558,0.597574,0.236097,0.928576,-0.286363,0.000000,0.000000,0.000000,-1,-0.712902,-0.607398,-0.194699,0.035814,0.089063,0.108507
"2018-06-07 00:14:56.209 +0000",1528330496.209019,0.691301,-1.195593,0.601970,0.233634,0.930433,-0.282328,0.000000,0.000000,0.000000,-1,-0.414023,-0.096094,-0.197123,0.085672,0.056246,0.002345
"2018-06-07 00:14:56.219 +0000",1528330496.219092,0.693490,-1.199092,0.601780,0.232168,0.931710,-0.279310,0.000000,0.000000,0.000000,-1,-0.210297,0.321821,-0.243702,0.111444,-0.040429,0.019331
"2018-06-07 00:14:56.229 +0000",1528330496.229166,0.694138,-1.201952,0.597374,0.230644,0.932745,-0.277111,0.000000,0.000000,0.000000,-1,-0.091165,0.504719,-0.324116,0.111626,-0.105642,0.029857
"2018-06-07 00:14:56.239 +0000",1528330496.239239,0.692089,-1.204899,0.589489,0.228320,0.933803,-0.275465,0.000000,0.000000,0.000000,-1,-0.034696,0.522886,-0.430682,0.075955,-0.115291,0.006590
"2018-06-07 00:14:56.249 +0000",1528330496.249312,0.686378,-1.208248,0.578215,0.224761,0.934996,-0.274344,0.000000,0.000000,0.000000,-1,0.008271,0.468609,-0.548183,0.033205,-0.100951,-0.052667
"2018-06-07 00:14:56.259 +0000",1528330496.259386,0.677632,-1.211616,0.563727,0.220377,0.936185,-0.273844,0.000000,0.000000,0.000000,-1,0.093903,0.477936,-0.621496,-0.009378,-0.122465,-0.107214
"2018-06-07 00:14:56.269 +0000",1528330496.269459,0.665755,-1.213827,0.546341,0.215830,0.936960,-0.274814,0.000000,0.000000,0.000000,-1,0.243993,0.412395,-0.599442,-0.023813,-0.195002,-0.188504
"2018-06-07 00:14:56.280 +0000",1528330496.279532,0.650627,-1.214572,0.527374,0.211225,0.937220,-0.277492,0.000000,0.000000,0.000000,-1,0.369894,0.200690,-0.555169,-0.034132,-0.231333,-0.262792
"2018-06-07 00:14:56.290 +0000",1528330496.289606,0.631719,-1.214830,0.507874,0.205798,0.937310,-0.281241,0.000000,0.000000,0.000000,-1,0.376580,-0.160436,-0.560537,-0.059955,-0.209466,-0.220987
"2018-06-07 00:14:56.300 +0000",1528330496.299679,0.609407,-1.216153,0.489076,0.198762,0.937770,-0.284745,0.000000,0.000000,0.000000,-1,0.233578,-0.564535,-0.627000,-0.067643,-0.184078,-0.091644
"2018-06-07 00:14:56.310 +0000",1528330496.309752,0.583866,-1.219203,0.470810,0.189848,0.938825,-0.287340,0.000000,0.000000,0.000000,-1,0.063336,-0.921443,-0.708322,-0.044340,-0.166975,0.017107
"2018-06-07 00:14:56.320 +0000",1528330496.319826,0.555035,-1.222755,0.452421,0.179728,0.940042,-0.289858,0.000000,0.000000,0.000000,-1,0.052090,-1.213465,-0.712372,0.030035,-0.181467,0.026735
"2018-06-07 00:14:56.330 +0000",1528330496.329899,0.522916,-1.224480,0.432626,0.169516,0.940630,-0.294074,0.000000,0.000000,0.000000,-1,0.261747,-1.365775,-0.640152,0.132181,-0.182863,-0.012979
"2018-06-07 00:14:56.340 +0000",1528330496.339973,0.488464,-1.223243,0.410548,0.159832,0.940209,-0.300766,0.000000,0.000000,0.000000,-1,0.537594,-1.349844,-0.591257,0.197544,-0.171029,-0.023194
"2018-06-07 00:14:56.350 +0000",1528330496.350046,0.452773,-1.220203,0.385962,0.150248,0.939169,-0.308846,0.000000,0.000000,0.000000,-1,0.670020,-1.203351,-0.620177,0.202307,-0.187430,0.049096
"2018-06-07 00:14:56.360 +0000",1528330496.360119,0.419223,-1.216905,0.360692,0.141063,0.938031,-0.316540,0.000000,0.000000,0.000000,-1,0.648953,-0.886023,-0.651475,0.167424,-0.228986,0.112652
"2018-06-07 00:14:56.370 +0000",1528330496.370193,0.390768,-1.214092,0.336968,0.133005,0.937053,-0.322864,0.000000,0.000000,0.000000,-1,0.552910,-0.530680,-0.635162,0.117819,-0.256404,0.132831
"2018-06-07 00:14:56.380 +0000",1528330496.380266,0.368260,-1.212096,0.316362,0.126377,0.936354,-0.327520,0.000000,0.000000,0.000000,-1,0.418882,-0.261208,-0.585667,0.049495,-0.243452,0.108800
"2018-06-07 00:14:56.390 +0000",1528330496.390339,0.351012,-1.211191,0.299065,0.121001,0.936036,-0.330447,0.000000,0.000000,0.000000,-1,0.252177,-0.051201,-0.513682,0.005814,-0.219834,0.103579
"2018-06-07 00:14:56.400 +0000",1528330496.400413,0.339704,-1.211654,0.285760,0.117113,0.936198,-0.331385,0.000000,0.000000,0.000000,-1,0.068598,0.169705,-0.434097,0.010924,-0.186626,0.117991
"2018-06-07 00:14:56.410 +0000",1528330496.410486,0.333429,-1.213462,0.275781,0.114477,0.936832,-0.330513,0.000000,0.000000,0.000000,-1,-0.090626,0.341362,-0.374072,0.056391,-0.146244,0.117104
"2018-06-07 00:14:56.421 +0000",1528330496.420559,0.329976,-1.216175,0.267781,0.112511,0.937778,-0.328501,0.000000,0.000000,0.000000,-1,-0.173784,0.408030,-0.358629,0.107322,-0.094242,0.079187
"2018-06-07 00:14:56.431 +0000",1528330496.430633,0.325524,-1.218994,0.258806,0.110201,0.938753,-0.326492,0.000000,0.000000,0.000000,-1,-0.154610,0.387361,-0.391002,0.133436,-0.038439,0.015564
"2018-06-07 00:14:56.441 +0000",1528330496.440706,0.318555,-1.221002,0.247863,0.107333,0.939443,-0.325462,0.000000,0.000000,0.000000,-1,-0.032437,0.300016,-0.423806,0.167005,-0.016149,-0.045403
"2018-06-07 00:14:56.451 +0000",1528330496.450779,0.307315,-1.220717,0.234312,0.103749,0.939346,-0.326902,0.000000,0.000000,0.000000,-1,0.251406,0.087865,-0.430451,0.201564,0.007432,-0.187456
"2018-06-07 00:14:56.461 +0000",1528330496.460853,0.290921,-1.216264,0.217854,0.099575,0.937809,-0.332563,0.000000,0.000000,0.000000,-1,0.720981,-0.151324,-0.410709,0.237843,0.077328,-0.352084
"2018-06-07 00:14:56.471 +0000",1528330496.470926,0.271198,-1.206312,0.199558,0.095492,0.934308,-0.343438,0.000000,0.000000,0.000000,-1,1.261251,-0.295158,-0.308027,0.280377,0.195194,-0.374717
"2018-06-07 00:14:56.481 +0000",1528330496.480999,0.250009,-1.190250,0.182912,0.091896,0.928462,-0.359879,0.000000,0.000000,0.000000,-1,1.846278,-0.689512,-0.121201,0.291405,0.378499,-0.442016
"2018-06-07 00:14:56.491 +0000",1528330496.491073,0.224957,-1.167191,0.168669,0.087605,0.919651,-0.382840,0.000000,0.000000,0.000000,-1,2.525114,-1.345928,0.054968,0.245464,0.632504,-0.619830
"2018-06-07 00:14:56.501 +0000",1528330496.501146,0.196736,-1.136905,0.156525,0.082176,0.907337,-0.412294,0.000000,0.000000,0.000000,-1,3.210531,-1.786899,0.168285,0.182930,0.864682,-0.621199
"2018-06-07 00:14:56.511 +0000",1528330496.511219,0.168459,-1.100489,0.146046,0.075979,0.891429,-0.446745,0.000000,0.000000,0.000000,-1,3.762700,-1.877792,0.219463,0.112681,1.006459,-0.512071
"2018-06-07 00:14:56.521 +0000",1528330496.521293,0.142106,-1.060392,0.138093,0.069190,0.872547,-0.483605,0.000000,0.000000,0.000000,-1,4.033447,-1.958446,0.260558,0.028085,1.093258,-0.353263
"2018-06-07 00:14:56.531 +0000",1528330496.531366,0.116102,-1.020547,0.133731,0.060574,0.852394,-0.519379,0.000000,0.000000,0.000000,-1,3.891632,-2.305927,0.306125,-0.054409,1.087669,-0.058258
"2018-06-07 00:14:56.541 +0000",1528330496.541439,0.089979,-0.984314,0.133758,0.049730,0.832892,-0.551196,0.000000,0.000000,0.000000,-1,3.458586,-2.677440,0.392088,-0.108385,0.947320,0.300601
"2018-06-07 00:14:56.552 +0000",1528330496.551513,0.065021,-0.952438,0.136728,0.037666,0.814831,-0.578473,0.000000,0.000000,0.000000,-1,3.059350,-2.709363,0.410119,-0.183784,0.684406,0.596494
"2018-06-07 00:14:56.562 +0000",1528330496.561586,0.039301,-0.922638,0.139270,0.023721,0.797197,-0.603253,0.000000,0.000000,0.000000,-1,2.929397,-2.789172,0.245611,-0.173944,0.358519,0.732739
"2018-06-07 00:14:56.572 +0000",1528330496.571659,0.009163,-0.892756,0.137877,0.005747,0.778803,-0.627242,0.000000,0.000000,0.000000,-1,2.996264,-2.886311,-0.106561,-0.194209,0.119649,0.660094
"2018-06-07 00:14:56.582 +0000",1528330496.581733,-0.021182,-0.861786,0.132968,-0.013790,0.759007,-0.650936,0.000000,0.000000,0.000000,-1,3.088468,-2.544546,-0.392975,-0.288761,-0.010350,0.315228
"2018-06-07 00:14:56.592 +0000",1528330496.591806,-0.046480,-0.832408,0.127722,-0.031274,0.739554,-0.672370,0.000000,0.000000,0.000000,-1,2.800505,-1.955632,-0.443309,-0.269949,0.045236,0.006476
"2018-06-07 00:14:56.602 +0000",1528330496.601879,-0.061142,-0.808627,0.124681,-0.042192,0.723340,-0.689202,0.000000,0.000000,0.000000,-1,2.190161,-0.951353,-0.280870,-0.182738,0.294162,-0.028968
"2018-06-07 00:14:56.612 +0000",1528330496.611953,-0.061285,-0.790534,0.125543,-0.043085,0.710729,-0.702145,0.000000,0.000000,0.000000,-1,1.684630,0.190915,0.030170,-0.064779,0.589320,0.004605
"2018-06-07 00:14:56.622 +0000",1528330496.622026,-0.051152,-0.775690,0.129472,-0.036503,0.700209,-0.713004,0.000000,0.000000,0.000000,-1,1.447215,0.850288,0.227323,-0.061824,0.757830,0.023353
"2018-06-07 00:14:56.632 +0000",1528330496.632099,-0.038186,-0.761870,0.134410,-0.027622,0.690276,-0.723019,0.000000,0.000000,0.000000,-1,1.372983,0.949643,0.307380,-0.100887,0.675767,0.097317
"2018-06-07 00:14:56.642 +0000",1528330496.642173,-0.025787,-0.748498,0.140007,-0.018892,0.680539,-0.732468,0.000000,0.000000,0.000000,-1,1.329494,0.816392,0.379160,-0.074888,0.399096,0.224655
"2018-06-07 00:14:56.652 +0000",1528330496.652246,-0.014417,-0.736111,0.146108,-0.010684,0.671411,-0.741008,0.000000,0.000000,0.000000,-1,1.196834,0.681852,0.437157,-0.052838,0.098914,0.362193
"2018-06-07 00:14:56.662 +0000",1528330496.662320,-0.004311,-0.725880,0.152546,-0.003224,0.663794,-0.747909,0.000000,0.000000,0.000000,-1,0.962517,0.542759,0.466332,-0.021892,-0.178519,0.482665
"2018-06-07 00:14:56.672 +0000",1528330496.672393,0.004566,-0.718372,0.158607,0.003437,0.658160,-0.752870,0.000000,0.000000,0.000000,-1,0.671849,0.467414,0.439887,-0.004170,-0.425433,0.587236
"2018-06-07 00:14:56.682 +0000",1528330496.682466,0.012149,-0.713658,0.163379,0.009184,0.654604,-0.755917,0.000000,0.000000,0.000000,-1,0.398601,0.439681,0.327489,-0.016234,-0.608003,0.641872
"2018-06-07 00:14:56.693 +0000",1528330496.692540,0.018457,-0.711439,0.165905,0.013979,0.652925,-0.757294,0.000000,0.000000,0.000000,-1,0.157339,0.474902,0.145285,-0.061846,-0.736070,0.667740
"2018-06-07 00:14:56.703 +0000",1528330496.702613,0.024372,-0.711892,0.166218,0.018451,0.653267,-0.756903,0.000000,0.000000,0.000000,-1,-0.089313,0.585817,-0.028082,-0.112018,-0.812050,0.678045
"2018-06-07 00:14:56.713 +0000",1528330496.712686,0.030190,-0.714765,0.164640,0.022797,0.655440,-0.754903,0.000000,0.000000,0.000000,-1,-0.347898,0.711870,-0.154050,-0.137940,-0.825621,0.658315
"2018-06-07 00:14:56.723 +0000",1528330496.722760,0.036825,-0.720252,0.162215,0.027673,0.659574,-0.751130,0.000000,0.000000,0.000000,-1,-0.599705,0.859594,-0.207901,-0.143518,-0.794142,0.635544
"2018-06-07 00:14:56.733 +0000",1528330496.732833,0.045697,-0.728221,0.159631,0.034095,0.665543,-0.745580,0.000000,0.000000,0.000000,-1,-0.843442,1.120289,-0.232400,-0.148841,-0.723068,0.622274
"2018-06-07 00:14:56.743 +0000",1528330496.742906,0.057360,-0.738835,0.156877,0.042381,0.673427,-0.738038,0.000000,0.000000,0.000000,-1,-1.084927,1.395351,-0.278375,-0.176322,-0.670635,0.608155
"2018-06-07 00:14:56.753 +0000",1528330496.752980,0.070540,-0.751903,0.153902,0.051479,0.683030,-0.728574,0.000000,0.000000,0.000000,-1,-1.350593,1.533040,-0.304257,-0.207225,-0.665528,0.590039
"2018-06-07 00:14:56.763 +0000",1528330496.763053,0.084290,-0.767742,0.151412,0.060573,0.694513,-0.716926,0.000000,0.000000,0.000000,-1,-1.618469,1.526782,-0.298284,-0.227657,-0.670068,0.568595
"2018-06-07 00:14:56.773 +0000",1528330496.773126,0.098023,-0.786315,0.149655,0.069138,0.707755,-0.703067,0.000000,0.000000,0.000000,-1,-1.896816,1.471086,-0.290279,-0.249940,-0.675635,0.551257
"2018-06-07 00:14:56.783 +0000",1528330496.783200,0.111766,-0.807980,0.148879,0.077065,0.722893,-0.686649,0.000000,0.000000,0.000000,-1,-2.181435,1.383538,-0.282352,-0.249734,-0.684669,0.548694
"2018-06-07 00:14:56.793 +0000",1528330496.793273,0.124813,-0.831973,0.149484,0.083833,0.739261,-0.668180,0.000000,0.000000,0.000000,-1,-2.429592,1.197077,-0.223166,-0.188295,-0.670993,0.533689
"2018-06-07 00:14:56.803 +0000",1528330496.803346,0.137213,-0.858285,0.151751,0.089420,0.756722,-0.647592,0.000000,0.000000,0.000000,-1,-2.677619,1.030457,-0.183284,-0.099918,-0.634591,0.506707
"2018-06-07 00:14:56.813 +0000",1528330496.813420,0.152521,-0.888683,0.156589,0.095782,0.776242,-0.623116,0.000000,0.000000,0.000000,-1,-3.150998,1.193494,-0.108582,0.017316,-0.629178,0.521858
"2018-06-07 00:14:56.823 +0000",1528330496.823493,0.170546,-0.922123,0.165004,0.102533,0.796886,-0.595365,0.000000,0.000000,0.000000,-1,-3.373288,1.070595,-0.006244,0.157431,-0.541652,0.389127
"2018-06-07 00:14:56.834 +0000",1528330496.833566,0.188536,-0.956140,0.176688,0.108082,0.816972,-0.566459,0.000000,0.000000,0.000000,-1,-3.464097,0.771333,0.093129,0.213833,-0.354966,0.243583
"2018-06-07 00:14:56.844 +0000",1528330496.843640,0.205841,-0.990275,0.191344,0.112100,0.836177,-0.536881,0.000000,0.000000,0.000000,-1,-3.486294,0.430709,0.153500,0.226996,-0.162410,0.118729
"2018-06-07 00:14:56.854 +0000",1528330496.853713,0.224207,-1.024625,0.209797,0.115484,0.854520,-0.506418,0.000000,0.000000,0.000000,-1,-3.567826,0.245602,0.261788,0.256113,0.055698,0.051965
"2018-06-07 00:14:56.864 +0000",1528330496.863786,0.250019,-1.060045,0.235409,0.120948,0.872377,-0.473634,0.000000,0.000000,0.000000,-1,-3.742886,0.424286,0.468156,0.310479,0.319349,0.099336
"2018-06-07 00:14:56.874 +0000",1528330496.873860,0.288764,-1.096435,0.270332,0.130073,0.889584,-0.437858,0.000000,0.000000,0.000000,-1,-3.974864,0.927810,0.660542,0.308052,0.583011,0.178489
"2018-06-07 00:14:56.884 +0000",1528330496.883933,0.340617,-1.133492,0.313944,0.141478,0.905896,-0.399168,0.000000,0.000000,0.000000,-1,-4.110721,1.343504,0.656684,0.163302,0.696627,0.144453
"2018-06-07 00:14:56.894 +0000",1528330496.894007,0.397687,-1.169605,0.361272,0.151241,0.920596,-0.360039,0.000000,0.000000,0.000000,-1,-3.979753,1.352527,0.424071,-0.069256,0.579388,-0.017143
"2018-06-07 00:14:56.904 +0000",1528330496.904080,0.453854,-1.202387,0.408290,0.157893,0.932901,-0.323673,0.000000,0.000000,0.000000,-1,-3.548326,1.218536,0.201110,-0.273174,0.307409,-0.158596
"2018-06-07 00:14:56.914 +0000",1528330496.914153,0.507664,-1.229010,0.452396,0.162939,0.942157,-0.292900,0.000000,0.000000,0.000000,-1,-2.861822,1.257037,0.113598,-0.418447,0.123410,-0.231911
"2018-06-07 00:14:56.924 +0000",1528330496.924227,0.557387,-1.248189,0.491115,0.167705,0.948412,-0.269053,0.000000,0.000000,0.000000,-1,-2.084630,1.294315,0.116230,-0.570461,0.183226,-0.277853
"2018-06-07 00:14:56.934 +0000",1528330496.934300,0.592962,-1.261391,0.520580,0.170156,0.952515,-0.252511,0.000000,0.000000,0.000000,-1,-1.448614,0.468816,0.008034,-0.759954,0.518448,-0.436637
"2018-06-07 00:14:56.944 +0000",1528330496.944373,0.599432,-1.271588,0.537196,0.166298,0.955570,-0.243373,0.000000,0.000000,0.000000,-1,-1.005991,-1.487435,-0.217026,-0.797279,0.962444,-0.644948
"2018-06-07 00:14:56.954 +0000",1528330496.954447,0.572779,-1.277303,0.540481,0.156790,0.957239,-0.243125,0.000000,0.000000,0.000000,-1,-0.322675,-3.276026,-0.210886,-0.487631,1.043035,-0.827523
"2018-06-07 00:14:56.965 +0000",1528330496.964520,0.540235,-1.274768,0.532255,0.150045,0.956503,-0.250179,0.000000,0.000000,0.000000,-1,0.535907,-1.890102,-0.031339,0.027720,0.698603,-0.351506
"2018-06-07 00:14:56.975 +0000",1528330496.974593,0.534172,-1.268873,0.519000,0.151393,0.954766,-0.255933,0.000000,0.000000,0.000000,-1,0.680893,1.523340,-0.047557,0.268804,0.420539,0.460690
"2018-06-07 00:14:56.985 +0000",1528330496.984667,0.560009,-1.265283,0.513357,0.159774,0.953693,-0.254838,0.000000,0.000000,0.000000,-1,0.305060,3.379067,0.109292,0.367402,0.182233,0.750444
"2018-06-07 00:14:56.995 +0000",1528330496.994740,0.597069,-1.261665,0.523562,0.171045,0.952598,-0.251596,0.000000,0.000000,0.000000,-1,0.108228,2.261232,0.575472,0.278418,-0.023292,0.337442
"2018-06-07 00:14:57.005 +0000",1528330497.004813,0.620880,-1.255233,0.541772,0.180548,0.950622,-0.252430,0.000000,0.000000,0.000000,-1,0.245530,0.232822,0.863984,-0.017950,0.086976,-0.389614
"2018-06-07 00:14:57.015 +0000",1528330497.014887,0.636195,-1.249074,0.556139,0.187867,0.948692,-0.254340,0.000000,0.000000,0.000000,-1,0.193696,0.250099,0.636116,-0.019090,0.702538,-0.239633
"2018-06-07 00:14:57.025 +0000",1528330497.024960,0.648939,-1.247237,0.567017,0.192146,0.948110,-0.253313,0.000000,0.000000,0.000000,-1,-0.097890,0.171576,0.319240,0.360680,1.433894,-0.059461
"2018-06-07 00:14:57.035 +0000",1528330497.035033,0.645872,-1.243512,0.566928,0.193493,0.946919,-0.256720,0.000000,0.000000,0.000000,-1,0.550473,-0.439853,0.218093,0.705723,1.888912,-0.743615
"2018-06-07 00:14:57.045 +0000",1528330497.045107,0.628257,-1.228968,0.547421,0.197015,0.942143,-0.271203,0.000000,0.000000,0.000000,-1,1.825558,0.408256,0.389743,1.120642,1.625896,-1.311698
"2018-06-07 00:14:57.055 +0000",1528330497.055180,0.621289,-1.210285,0.523376,0.205332,0.935717,-0.286834,0.000000,0.000000,0.000000,-1,1.927947,1.882741,0.415311,1.089606,0.594282,-0.409623
"2018-06-07 00:14:57.065 +0000",1528330497.065254,0.630886,-1.195870,0.510981,0.216009,0.930535,-0.295712,0.000000,0.000000,0.000000,-1,1.271632,2.046271,0.513022,0.841242,-0.108025,0.382641
"2018-06-07 00:14:57.075 +0000",1528330497.075327,0.646953,-1.184729,0.512382,0.226967,0.926397,-0.300457,0.000000,0.000000,0.000000,-1,0.737923,1.228072,0.768943,0.570900,-0.420248,0.471523
"2018-06-07 00:14:57.085 +0000",1528330497.085400,0.663968,-1.175323,0.524383,0.237406,0.922814,-0.303401,0.000000,0.000000,0.000000,-1,0.384281,0.398543,0.966335,0.163351,-0.509209,0.458766
"2018-06-07 00:14:57.095 +0000",1528330497.095474,0.678405,-1.167608,0.541026,0.246222,0.919815,-0.305476,0.000000,0.000000,0.000000,-1,0.143306,-0.243229,0.967171,-0.146673,-0.465805,0.430216
"2018-06-07 00:14:57.106 +0000",1528330497.105547,0.689369,-1.162664,0.559282,0.252445,0.917864,-0.306263,0.000000,0.000000,0.000000,-1,-0.124029,-0.662692,0.817048,-0.312946,-0.396761,0.328022
"2018-06-07 00:14:57.116 +0000",1528330497.115620,0.699954,-1.162306,0.578260,0.255885,0.917721,-0.303826,0.000000,0.000000,0.000000,-1,-0.579623,-0.651693,0.509413,-0.366618,-0.285657,0.426125
"2018-06-07 00:14:57.126 +0000",1528330497.125694,0.714069,-1.168726,0.599118,0.256284,0.920253,-0.295725,0.000000,0.000000,0.000000,-1,-1.161745,-0.457315,0.105794,-0.346433,-0.054683,0.511057
"2018-06-07 00:14:57.136 +0000",1528330497.135767,0.730338,-1.180988,0.622277,0.253513,0.924982,-0.283089,0.000000,0.000000,0.000000,-1,-1.588910,-0.551639,-0.197910,-0.254383,0.228644,0.317116
"2018-06-07 00:14:57.146 +0000",1528330497.145841,0.749579,-1.195048,0.649271,0.250027,0.930233,-0.268612,0.000000,0.000000,0.000000,-1,-1.674081,-0.558517,-0.184827,-0.085705,0.410801,0.110500
"2018-06-07 00:14:57.156 +0000",1528330497.155915,0.769785,-1.206287,0.673497,0.248110,0.934299,-0.255982,0.000000,0.000000,0.000000,-1,-1.286355,-0.103216,-0.124155,-0.014544,0.451123,0.011338
"2018-06-07 00:14:57.166 +0000",1528330497.165987,0.786616,-1.213015,0.687865,0.247928,0.936676,-0.247325,0.000000,0.000000,0.000000,-1,-0.669431,0.491236,-0.109855,0.017743,0.281799,-0.043904
"2018-06-07 00:14:57.176 +0000",1528330497.176061,0.797397,-1.215522,0.689231,0.248899,0.937551,-0.242997,0.000000,0.000000,0.000000,-1,-0.063569,1.089220,-0.160058,-0.020078,0.045130,-0.058960
"2018-06-07 00:14:57.186 +0000",1528330497.186135,0.801455,-1.215303,0.678370,0.250030,0.937475,-0.242127,0.000000,0.000000,0.000000,-1,0.423235,1.486248,-0.274036,-0.108963,-0.154043,-0.032211
"2018-06-07 00:14:57.196 +0000",1528330497.196208,0.795677,-1.212890,0.656233,0.250242,0.936632,-0.245150,0.000000,0.000000,0.000000,-1,0.803359,1.438400,-0.392291,-0.187620,-0.325228,-0.086347
"2018-06-07 00:14:57.206 +0000",1528330497.206281,0.778758,-1.209462,0.626910,0.248313,0.935426,-0.251632,0.000000,0.000000,0.000000,-1,1.002260,0.870798,-0.509492,-0.252204,-0.452913,-0.160416
"2018-06-07 00:14:57.216 +0000",1528330497.216355,0.751137,-1.206371,0.595341,0.243241,0.934329,-0.260506,0.000000,0.000000,0.000000,-1,0.967191,-0.048784,-0.616424,-0.312851,-0.530078,-0.181144
"2018-06-07 00:14:57.226 +0000",1528330497.226428,0.718437,-1.205568,0.567027,0.235088,0.934042,-0.268885,0.000000,0.000000,0.000000,-1,0.658724,-0.780382,-0.706049,-0.344875,-0.583487,-0.051901
"2018-06-07 00:14:57.237 +0000",1528330497.236502,0.688207,-1.207896,0.545279,0.225471,0.934871,-0.274187,0.000000,0.000000,0.000000,-1,0.205464,-1.015325,-0.740115,-0.308448,-0.624935,0.174929
"2018-06-07 00:14:57.247 +0000",1528330497.246575,0.663980,-1.212938,0.530214,0.215855,0.936649,-0.275853,0.000000,0.000000,0.000000,-1,-0.125610,-0.992201,-0.714550,-0.223653,-0.625049,0.217839
"2018-06-07 00:14:57.257 +0000",1528330497.256648,0.641448,-1.218222,0.516743,0.206621,0.938487,-0.276677,0.000000,0.000000,0.000000,-1,-0.107993,-0.984594,-0.684450,-0.152712,-0.518382,0.019978
"2018-06-07 00:14:57.267 +0000",1528330497.266722,0.615571,-1.221936,0.499376,0.197379,0.939763,-0.279083,0.000000,0.000000,0.000000,-1,0.138922,-0.932238,-0.702073,-0.077751,-0.318013,-0.171586
"2018-06-07 00:14:57.277 +0000",1528330497.276795,0.585076,-1.223249,0.475224,0.188097,0.940211,-0.283942,0.000000,0.000000,0.000000,-1,0.420709,-0.706133,-0.768751,0.019682,-0.116572,-0.221169
"2018-06-07 00:14:57.287 +0000",1528330497.286868,0.552426,-1.223022,0.445409,0.178839,0.940134,-0.290112,0.000000,0.000000,0.000000,-1,0.599661,-0.369328,-0.861762,0.132394,0.030234,-0.163654
"2018-06-07 00:14:57.297 +0000",1528330497.296942,0.519944,-1.222047,0.412366,0.169779,0.939801,-0.296563,0.000000,0.000000,0.000000,-1,0.666035,-0.083464,-0.923470,0.251333,0.076618,-0.047599
"2018-06-07 00:14:57.307 +0000",1528330497.307014,0.487469,-1.220567,0.378549,0.160711,0.939294,-0.303147,0.000000,0.000000,0.000000,-1,0.726067,-0.088700,-0.944060,0.369196,0.013800,0.029756
"2018-06-07 00:14:57.317 +0000",1528330497.317088,0.450797,-1.217237,0.341692,0.150850,0.938146,-0.311649,0.000000,0.000000,0.000000,-1,0.919837,-0.259225,-0.989101,0.340315,-0.109228,0.005756
"2018-06-07 00:14:57.327 +0000",1528330497.327162,0.408629,-1.211514,0.301548,0.139710,0.936149,-0.322653,0.000000,0.000000,0.000000,-1,1.148390,-0.513060,-1.039842,0.248154,-0.219231,-0.032068
"2018-06-07 00:14:57.337 +0000",1528330497.337234,0.364340,-1.203989,0.260899,0.127794,0.933477,-0.335095,0.000000,0.000000,0.000000,-1,1.245150,-0.644521,-1.040447,0.163344,-0.325460,0.035367
"2018-06-07 00:14:57.347 +0000",1528330497.347308,0.324572,-1.195951,0.224760,0.116759,0.930564,-0.347011,0.000000,0.000000,0.000000,-1,1.187481,-0.584792,-0.923971,0.099900,-0.423454,0.119945
"2018-06-07 00:14:57.357 +0000",1528330497.357382,0.293046,-1.188157,0.196409,0.107855,0.927682,-0.357452,0.000000,0.000000,0.000000,-1,0.999718,-0.499557,-0.693105,0.076426,-0.471307,0.139495
"2018-06-07 00:14:57.367 +0000",1528330497.367455,0.268978,-1.181889,0.176384,0.100765,0.925324,-0.365542,0.000000,0.000000,0.000000,-1,0.743138,-0.578988,-0.507738,0.088185,-0.435761,0.095523
"2018-06-07 00:14:57.378 +0000",1528330497.377529,0.247130,-1.176952,0.160446,0.093871,0.923441,-0.372081,0.000000,0.000000,0.000000,-1,0.609469,-0.747557,-0.450913,0.124772,-0.308679,-0.016926
"2018-06-07 00:14:57.388 +0000",1528330497.387602,0.224254,-1.171363,0.144900,0.086482,0.921282,-0.379157,0.000000,0.000000,0.000000,-1,0.747301,-0.879942,-0.465597,0.214528,-0.154680,-0.161706
"2018-06-07 00:14:57.398 +0000",1528330497.397675,0.199845,-1.162475,0.127928,0.078825,0.917789,-0.389166,0.000000,0.000000,0.000000,-1,1.104281,-0.854859,-0.451282,0.354372,0.010709,-0.187937
"2018-06-07 00:14:57.408 +0000",1528330497.407749,0.178469,-1.148008,0.112875,0.072838,0.911949,-0.403786,0.000000,0.000000,0.000000,-1,1.681447,-0.725604,-0.262915,0.428199,0.202248,-0.246193
"2018-06-07 00:14:57.418 +0000",1528330497.417822,0.162255,-1.126194,0.103991,0.069480,0.902782,-0.424449,0.000000,0.000000,0.000000,-1,2.367829,-0.872312,0.098655,0.378640,0.474263,-0.436468
"2018-06-07 00:14:57.428 +0000",1528330497.427895,0.148773,-1.097649,0.103032,0.067544,0.890139,-0.450656,0.000000,0.000000,0.000000,-1,2.956729,-1.404699,0.481914,0.264700,0.840681,-0.604368
"2018-06-07 00:14:57.438 +0000",1528330497.437969,0.134667,-1.064138,0.108473,0.065151,0.874371,-0.480864,0.000000,0.000000,0.000000,-1,3.340427,-2.036146,0.791136,0.218892,1.147632,-0.611009
"2018-06-07 00:14:57.448 +0000",1528330497.448042,0.117350,-1.028009,0.117044,0.060475,0.856272,-0.512972,0.000000,0.000000,0.000000,-1,3.545062,-2.579353,0.881592,0.196819,1.409933,-0.488814
"2018-06-07 00:14:57.458 +0000",1528330497.458115,0.094986,-0.991277,0.124508,0.051938,0.836726,-0.545153,0.000000,0.000000,0.000000,-1,3.588585,-2.907910,0.725644,0.107928,1.536809,-0.174406
"2018-06-07 00:14:57.468 +0000",1528330497.468189,0.068968,-0.954776,0.128080,0.039817,0.816184,-0.576418,0.000000,0.000000,0.000000,-1,3.625705,-2.862532,0.399770,-0.031684,1.384057,0.226366
"2018-06-07 00:14:57.478 +0000",1528330497.478261,0.040506,-0.919113,0.128280,0.024561,0.795064,-0.606027,0.000000,0.000000,0.000000,-1,3.474229,-2.845456,0.153844,-0.052424,1.008509,0.560709
"2018-06-07 00:14:57.488 +0000",1528330497.488335,0.011944,-0.887264,0.127865,0.007543,0.775347,-0.631491,0.000000,0.000000,0.000000,-1,3.051806,-2.762687,0.031353,-0.076436,0.580778,0.638159
"2018-06-07 00:14:57.498 +0000",1528330497.498409,-0.012876,-0.858977,0.127276,-0.008411,0.757174,-0.653158,0.000000,0.000000,0.000000,-1,2.747454,-2.254868,-0.063281,-0.224835,0.316953,0.415228
"2018-06-07 00:14:57.508 +0000",1528330497.508482,-0.029914,-0.833415,0.126841,-0.020110,0.740232,-0.672051,0.000000,0.000000,0.000000,-1,2.502348,-1.495705,-0.107839,-0.468568,0.214328,0.012246
"2018-06-07 00:14:57.519 +0000",1528330497.518555,-0.040184,-0.811028,0.126691,-0.027670,0.724995,-0.688197,0.000000,0.000000,0.000000,-1,2.122316,-0.853605,-0.074983,-0.610880,0.182277,-0.160542
"2018-06-07 00:14:57.529 +0000",1528330497.528629,-0.043912,-0.792661,0.127601,-0.030814,0.712224,-0.701275,0.000000,0.000000,0.000000,-1,1.727252,-0.291904,0.010380,-0.597421,0.252208,-0.083209
"2018-06-07 00:14:57.539 +0000",1528330497.538702,-0.039782,-0.778089,0.129987,-0.028328,0.701920,-0.711692,0.000000,0.000000,0.000000,-1,1.360029,0.422260,0.144528,-0.406319,0.338272,0.021354
"2018-06-07 00:14:57.549 +0000",1528330497.548776,-0.027888,-0.767393,0.134710,-0.020069,0.694261,-0.719443,0.000000,0.000000,0.000000,-1,1.022002,0.955165,0.328636,-0.153286,0.355574,0.110618
"2018-06-07 00:14:57.559 +0000",1528330497.558849,-0.011280,-0.759490,0.141180,-0.008180,0.688551,-0.725141,0.000000,0.000000,0.000000,-1,0.720062,1.273099,0.490523,-0.004317,0.288164,0.222944
"2018-06-07 00:14:57.569 +0000",1528330497.568922,0.008547,-0.754010,0.149431,0.006230,0.684567,-0.728923,0.000000,0.000000,0.000000,-1,0.495173,1.442079,0.621683,0.062053,0.129413,0.330836
"2018-06-07 00:14:57.579 +0000",1528330497.578996,0.029184,-0.750055,0.158179,0.021350,0.681679,-0.731340,0.000000,0.000000,0.000000,-1,0.344830,1.444876,0.640321,0.031751,-0.037453,0.372071
"2018-06-07 00:14:57.589 +0000",1528330497.589069,0.049038,-0.748085,0.166949,0.035930,0.680236,-0.732112,0.000000,0.000000,0.000000,-1,0.160151,1.332431,0.630736,-0.005382,-0.202789,0.433665
"2018-06-07 00:14:57.599 +0000",1528330497.599142,0.067011,-0.747756,0.175355,0.049097,0.679995,-0.731571,0.000000,0.000000,0.000000,-1,-0.057952,1.171667,0.602801,-0.021646,-0.386263,0.495212
"2018-06-07 00:14:57.609 +0000",1528330497.609216,0.082794,-0.749739,0.182829,0.060525,0.681448,-0.729360,0.000000,0.000000,0.000000,-1,-0.297503,1.029847,0.493222,-0.058602,-0.524725,0.508138
"2018-06-07 00:14:57.619 +0000",1528330497.619288,0.096256,-0.754331,0.188412,0.070036,0.684802,-0.725356,0.000000,0.000000,0.000000,-1,-0.552347,0.939859,0.317138,-0.118132,-0.605013,0.514251
"2018-06-07 00:14:57.629 +0000",1528330497.629362,0.108006,-0.761754,0.192065,0.078004,0.690192,-0.719410,0.000000,0.000000,0.000000,-1,-0.788303,0.902634,0.136861,-0.173326,-0.656439,0.510349
"2018-06-07 00:14:57.639 +0000",1528330497.639436,0.118518,-0.771036,0.193775,0.084801,0.696878,-0.712158,0.000000,0.000000,0.000000,-1,-0.974080,0.940106,-0.021800,-0.208061,-0.655512,0.506958
"2018-06-07 00:14:57.650 +0000",1528330497.649508,0.129021,-0.782162,0.194043,0.091273,0.704815,-0.703495,0.000000,0.000000,0.000000,-1,-1.140233,1.056532,-0.146931,-0.218501,-0.634258,0.512058
"2018-06-07 00:14:57.660 +0000",1528330497.659583,0.140382,-0.795222,0.193567,0.097963,0.714019,-0.693239,0.000000,0.000000,0.000000,-1,-1.328834,1.201239,-0.224600,-0.194230,-0.629500,0.517473
"2018-06-07 00:14:57.670 +0000",1528330497.669656,0.153297,-0.810513,0.193070,0.105228,0.724641,-0.681045,0.000000,0.000000,0.000000,-1,-1.518747,1.343603,-0.267853,-0.179691,-0.629670,0.488083
"2018-06-07 00:14:57.680 +0000",1528330497.679729,0.166930,-0.827456,0.192923,0.112446,0.736212,-0.667344,0.000000,0.000000,0.000000,-1,-1.704572,1.355214,-0.280301,-0.196568,-0.619635,0.418168
"2018-06-07 00:14:57.690 +0000",1528330497.689803,0.179408,-0.846408,0.193221,0.118252,0.748905,-0.652041,0.000000,0.000000,0.000000,-1,-1.913114,1.160487,-0.318037,-0.241681,-0.602024,0.348391
"2018-06-07 00:14:57.700 +0000",1528330497.699876,0.190276,-0.868195,0.193471,0.122217,0.763164,-0.634542,0.000000,0.000000,0.000000,-1,-2.201149,1.038210,-0.408088,-0.288446,-0.611903,0.344244
"2018-06-07 00:14:57.710 +0000",1528330497.709949,0.200250,-0.892794,0.193404,0.124767,0.778827,-0.614704,0.000000,0.000000,0.000000,-1,-2.414642,0.975435,-0.501363,-0.274364,-0.589359,0.349582
"2018-06-07 00:14:57.720 +0000",1528330497.720023,0.208584,-0.918459,0.192729,0.125704,0.794667,-0.593888,0.000000,0.000000,0.000000,-1,-2.495890,0.837188,-0.572571,-0.226244,-0.526433,0.340226
"2018-06-07 00:14:57.730 +0000",1528330497.730096,0.215563,-0.944061,0.192141,0.125451,0.809947,-0.572930,0.000000,0.000000,0.000000,-1,-2.468571,0.716452,-0.559002,-0.152521,-0.450267,0.369637
"2018-06-07 00:14:57.740 +0000",1528330497.740169,0.223069,-0.968987,0.192962,0.125242,0.824312,-0.552108,0.000000,0.000000,0.000000,-1,-2.405185,0.673420,-0.464615,-0.042845,-0.393130,0.424545
"2018-06-07 00:14:57.750 +0000",1528330497.750243,0.236131,-0.994581,0.197580,0.127465,0.838531,-0.529735,0.000000,0.000000,0.000000,-1,-2.600263,1.078272,-0.277980,0.052635,-0.392776,0.519069
"2018-06-07 00:14:57.760 +0000",1528330497.760316,0.260840,-1.023111,0.208530,0.134288,0.853732,-0.503099,0.000000,0.000000,0.000000,-1,-2.964634,1.648399,-0.087249,0.148534,-0.436129,0.620225
"2018-06-07 00:14:57.770 +0000",1528330497.770389,0.294737,-1.052862,0.226908,0.143817,0.868844,-0.473737,0.000000,0.000000,0.000000,-1,-3.125158,1.806162,0.143766,0.228773,-0.287423,0.470319
"2018-06-07 00:14:57.780 +0000",1528330497.780463,0.335543,-1.082582,0.253671,0.154449,0.883172,-0.442891,0.000000,0.000000,0.000000,-1,-3.230574,1.672188,0.346914,0.180740,-0.021828,0.359670
"2018-06-07 00:14:57.791 +0000",1528330497.790535,0.380792,-1.112799,0.288741,0.164329,0.896940,-0.410482,0.000000,0.000000,0.000000,-1,-3.371769,1.265164,0.455769,0.043664,0.260195,0.276403
"2018-06-07 00:14:57.801 +0000",1528330497.800610,0.426484,-1.142806,0.330921,0.171692,0.909802,-0.377865,0.000000,0.000000,0.000000,-1,-3.457430,0.569932,0.480834,-0.092605,0.402073,0.137662
"2018-06-07 00:14:57.811 +0000",1528330497.810683,0.469885,-1.171398,0.377995,0.176071,0.921295,-0.346719,0.000000,0.000000,0.000000,-1,-3.316831,-0.146399,0.451537,-0.209274,0.400879,-0.041724
"2018-06-07 00:14:57.821 +0000",1528330497.820755,0.507446,-1.195856,0.424875,0.177961,0.930530,-0.320068,0.000000,0.000000,0.000000,-1,-2.821156,-0.700252,0.393933,-0.301496,0.303769,-0.283432
"2018-06-07 00:14:57.831 +0000",1528330497.830830,0.535814,-1.213868,0.463816,0.178381,0.936974,-0.300430,0.000000,0.000000,0.000000,-1,-1.990452,-0.776510,0.281017,-0.395453,0.219520,-0.527817
"2018-06-07 00:14:57.841 +0000",1528330497.840903,0.553234,-1.224249,0.487391,0.178467,0.940551,-0.288985,0.000000,0.000000,0.000000,-1,-1.073674,-0.327552,0.110272,-0.460785,0.185182,-0.668610
"2018-06-07 00:14:57.851 +0000",1528330497.850976,0.561136,-1.228872,0.494841,0.178429,0.942111,-0.283881,0.000000,0.000000,0.000000,-1,-0.366915,0.212011,-0.078015,-0.466439,0.194730,-0.727548
"2018-06-07 00:14:57.861 +0000",1528330497.861050,0.561039,-1.231090,0.490791,0.177289,0.942853,-0.282129,0.000000,0.000000,0.000000,-1,-0.068239,0.368488,-0.283692,-0.450955,0.276737,-0.739051
"2018-06-07 00:14:57.871 +0000",1528330497.871123,0.553909,-1.234951,0.482791,0.173357,0.944132,-0.280288,0.000000,0.000000,0.000000,-1,-0.232507,-0.111024,-0.443907,-0.383700,0.534719,-0.559327
"2018-06-07 00:14:57.881 +0000",1528330497.881196,0.545174,-1.241779,0.481275,0.167555,0.946360,-0.276273,0.000000,0.000000,0.000000,-1,-0.659820,-0.952347,-0.362551,-0.143156,0.643987,-0.171450
"2018-06-07 00:14:57.891 +0000",1528330497.891270,0.536796,-1.249331,0.486580,0.161575,0.948774,-0.271517,0.000000,0.000000,0.000000,-1,-0.705886,-1.335189,-0.197910,0.136139,0.493304,0.055834
"2018-06-07 00:14:57.901 +0000",1528330497.901343,0.540680,-1.253650,0.494092,0.160517,0.950129,-0.267371,0.000000,0.000000,0.000000,-1,-0.411904,0.168573,0.041358,0.381566,0.269582,0.521842
"2018-06-07 00:14:57.911 +0000",1528330497.911416,0.568673,-1.255085,0.504472,0.167204,0.950576,-0.261624,0.000000,0.000000,0.000000,-1,-0.234947,2.282447,0.262231,0.515642,0.169068,1.026837
"2018-06-07 00:14:57.921 +0000",1528330497.921490,0.612213,-1.254410,0.521507,0.178801,0.950366,-0.254624,0.000000,0.000000,0.000000,-1,-0.254297,2.657735,0.547337,0.401658,0.142789,0.952866
"2018-06-07 00:14:57.932 +0000",1528330497.931563,0.648426,-1.252673,0.544014,0.188899,0.949824,-0.249299,0.000000,0.000000,0.000000,-1,-0.252528,0.929346,0.667080,-0.001567,0.262838,0.168473
"2018-06-07 00:14:57.942 +0000",1528330497.941637,0.654136,-1.249089,0.556880,0.192390,0.948697,-0.250915,0.000000,0.000000,0.000000,-1,0.163519,-1.023857,0.482964,-0.270133,0.947024,-0.982163
"2018-06-07 00:14:57.952 +0000",1528330497.951710,0.646064,-1.243686,0.559025,0.193442,0.946975,-0.256550,0.000000,0.000000,0.000000,-1,0.468802,-0.873260,0.375138,0.141824,1.737443,-0.816921
"2018-06-07 00:14:57.962 +0000",1528330497.961782,0.639676,-1.235592,0.555789,0.196368,0.944343,-0.263922,0.000000,0.000000,0.000000,-1,0.813356,-0.128177,0.414164,0.593716,2.001580,-0.549387
"2018-06-07 00:14:57.972 +0000",1528330497.971857,0.639070,-1.222613,0.546413,0.203502,0.939994,-0.273855,0.000000,0.000000,0.000000,-1,1.359320,1.173613,0.554384,0.796636,1.409325,-1.006174
"2018-06-07 00:14:57.982 +0000",1528330497.981930,0.649604,-1.206779,0.533000,0.215352,0.934474,-0.283514,0.000000,0.000000,0.000000,-1,1.540603,2.637398,0.565756,0.722392,0.259129,-0.515710
"2018-06-07 00:14:57.992 +0000",1528330497.992002,0.672700,-1.193137,0.524928,0.229764,0.929530,-0.288410,0.000000,0.000000,0.000000,-1,1.183580,3.023596,0.642992,0.632021,-0.263759,0.430744
"2018-06-07 00:14:58.002 +0000",1528330498.002077,0.697052,-1.182447,0.526690,0.243084,0.925535,-0.290333,0.000000,0.000000,0.000000,-1,0.646129,1.909658,0.738866,0.518070,-0.314574,0.533558
"2018-06-07 00:14:58.012 +0000",1528330498.012150,0.713875,-1.175308,0.536278,0.252254,0.922809,-0.291189,0.000000,0.000000,0.000000,-1,0.198080,0.437453,0.725929,0.244938,-0.136004,0.314917
"2018-06-07 00:14:58.022 +0000",1528330498.022223,0.723851,-1.171640,0.549992,0.257387,0.921389,-0.291193,0.000000,0.000000,0.000000,-1,-0.155167,-0.426959,0.602675,0.024031,0.012327,0.236490
"2018-06-07 00:14:58.032 +0000",1528330498.032297,0.734931,-1.171199,0.567197,0.260870,0.921218,-0.288625,0.000000,0.000000,0.000000,-1,-0.431830,-0.429584,0.521552,-0.036367,0.038209,0.255238
"2018-06-07 00:14:58.042 +0000",1528330498.042370,0.754272,-1.172742,0.587812,0.265429,0.921817,-0.282489,0.000000,0.000000,0.000000,-1,-0.728189,0.219719,0.462808,-0.029269,0.033307,0.390750
"2018-06-07 00:14:58.052 +0000",1528330498.052444,0.784287,-1.177056,0.612680,0.270976,0.923480,-0.271579,0.000000,0.000000,0.000000,-1,-1.050429,0.837304,0.358854,-0.054622,0.099057,0.454517
"2018-06-07 00:14:58.063 +0000",1528330498.062517,0.820434,-1.183884,0.640915,0.275995,0.926078,-0.257303,0.000000,0.000000,0.000000,-1,-1.286842,0.998628,0.213577,-0.108179,0.221962,0.331720
"2018-06-07 00:14:58.073 +0000",1528330498.072590,0.855369,-1.192039,0.669943,0.279104,0.929125,-0.242544,0.000000,0.000000,0.000000,-1,-1.273213,0.691690,0.117996,-0.146612,0.287138,0.092794
"2018-06-07 00:14:58.083 +0000",1528330498.082664,0.883539,-1.198382,0.695284,0.281263,0.931452,-0.230842,0.000000,0.000000,0.000000,-1,-1.051261,0.397035,0.111252,-0.117475,0.162833,-0.038002
"2018-06-07 00:14:58.093 +0000",1528330498.092737,0.906842,-1.203541,0.715637,0.282777,0.933317,-0.221262,0.000000,0.000000,0.000000,-1,-0.843802,0.470399,0.031393,-0.179399,-0.008542,0.032861
"2018-06-07 00:14:58.103 +0000",1528330498.102810,0.927492,-1.208697,0.730826,0.283431,0.935155,-0.212487,0.000000,0.000000,0.000000,-1,-0.708452,0.696429,-0.114547,-0.265579,-0.123235,0.075371
"2018-06-07 00:14:58.113 +0000",1528330498.112884,0.946854,-1.214586,0.742935,0.283018,0.937225,-0.203738,0.000000,0.000000,0.000000,-1,-0.623644,0.803630,-0.229524,-0.295530,-0.191727,0.048175
"2018-06-07 00:14:58.123 +0000",1528330498.122957,0.961923,-1.220404,0.751324,0.281578,0.939238,-0.196329,0.000000,0.000000,0.000000,-1,-0.549242,0.665926,-0.326903,-0.320397,-0.225691,-0.009177
"2018-06-07 00:14:58.133 +0000",1528330498.133029,0.970931,-1.226243,0.756130,0.278804,0.941226,-0.190685,0.000000,0.000000,0.000000,-1,-0.430759,0.366870,-0.400112,-0.326396,-0.235904,-0.101811
"2018-06-07 00:14:58.143 +0000",1528330498.143104,0.973220,-1.231677,0.756539,0.275006,0.943048,-0.187165,0.000000,0.000000,0.000000,-1,-0.273686,0.144657,-0.447371,-0.295392,-0.225320,-0.160873
"2018-06-07 00:14:58.153 +0000",1528330498.153177,0.970809,-1.236866,0.752806,0.270512,0.944762,-0.185062,0.000000,0.000000,0.000000,-1,-0.112664,0.098051,-0.483372,-0.218296,-0.188292,-0.164090
"2018-06-07 00:14:58.163 +0000",1528330498.163250,0.963764,-1.240934,0.743850,0.266042,0.946087,-0.184769,0.000000,0.000000,0.000000,-1,0.052310,0.163351,-0.500770,-0.105046,-0.160229,-0.144348
"2018-06-07 00:14:58.173 +0000",1528330498.173324,0.953533,-1.244068,0.729997,0.261719,0.947097,-0.185764,0.000000,0.000000,0.000000,-1,0.229744,0.327457,-0.511455,-0.007233,-0.181243,-0.091656
"2018-06-07 00:14:58.183 +0000",1528330498.183397,0.939327,-1.246097,0.710869,0.257502,0.947747,-0.188328,0.000000,0.000000,0.000000,-1,0.425127,0.386223,-0.521413,0.060934,-0.235588,-0.107280
