timestamp,timeIntervalSince1970,attitude.roll,attitude.pitch,attitude.yaw,gravity.x,gravity.y,gravity.z,magneticField.x,magneticField.y,magneticField.z,magneticField.accuracy,rotationRate.x,rotationRate.y,rotationRate.z,userAcceleration.x,userAcceleration.y,userAcceleration.z
"2018-06-07 00:17:53.389 +0000",1528330673.389115,-0.182981,0.233624,0.042814,-0.177019,-0.231504,-0.956593,0.000000,0.000000,0.000000,-1,-0.880133,-0.586065,0.105854,0.049425,0.045225,-0.089382
"2018-06-07 00:17:53.399 +0000",1528330673.399189,-0.190014,0.226681,0.043364,-0.184040,-0.224744,-0.956880,0.000000,0.000000,0.000000,-1,-0.591906,-0.704220,0.200583,0.053425,0.124784,-0.178038
"2018-06-07 00:17:53.409 +0000",1528330673.409262,-0.196983,0.222221,0.045500,-0.190899,-0.220397,-0.956547,0.000000,0.000000,0.000000,-1,-0.338758,-0.605230,0.322914,0.080700,0.170714,-0.179912
"2018-06-07 00:17:53.419 +0000",1528330673.419336,-0.201485,0.218717,0.049671,-0.195357,-0.216978,-0.956429,0.000000,0.000000,0.000000,-1,-0.253444,-0.249049,0.521674,0.106139,0.155485,-0.121421
"2018-06-07 00:17:53.429 +0000",1528330673.429409,-0.201187,0.213995,0.056329,-0.195275,-0.212365,-0.957480,0.000000,0.000000,0.000000,-1,-0.365332,0.320329,0.796800,0.100457,0.159753,-0.035333
"2018-06-07 00:17:53.439 +0000",1528330673.439482,-0.195101,0.207181,0.065023,-0.189720,-0.205702,-0.960048,0.000000,0.000000,0.000000,-1,-0.547110,0.953479,1.001279,0.080574,0.167158,0.054424
"2018-06-07 00:17:53.450 +0000",1528330673.449556,-0.183204,0.198529,0.074367,-0.178603,-0.197228,-0.963951,0.000000,0.000000,0.000000,-1,-0.705648,1.491784,1.063444,0.054976,0.115990,0.126793
"2018-06-07 00:17:53.460 +0000",1528330673.459629,-0.167042,0.188967,0.083481,-0.163307,-0.187844,-0.968527,0.000000,0.000000,0.000000,-1,-0.804399,1.859442,1.020639,0.024772,0.026712,0.119940
"2018-06-07 00:17:53.470 +0000",1528330673.469703,-0.147859,0.178258,0.090938,-0.144986,-0.177316,-0.973416,0.000000,0.000000,0.000000,-1,-0.993270,2.093539,0.830288,-0.038074,0.016808,0.142941
"2018-06-07 00:17:53.480 +0000",1528330673.479776,-0.126312,0.164956,0.095594,-0.124267,-0.164209,-0.978567,0.000000,0.000000,0.000000,-1,-1.340060,2.252882,0.560483,-0.102265,0.064264,0.193472
"2018-06-07 00:17:53.490 +0000",1528330673.489849,-0.103366,0.148101,0.097179,-0.102053,-0.147560,-0.983774,0.000000,0.000000,0.000000,-1,-1.743334,2.314444,0.272237,-0.143324,0.089607,0.225992
"2018-06-07 00:17:53.500 +0000",1528330673.499923,-0.080530,0.128484,0.095807,-0.079779,-0.128130,-0.988543,0.000000,0.000000,0.000000,-1,-1.997154,2.198657,-0.034078,-0.186120,0.090075,0.164599
"2018-06-07 00:17:53.510 +0000",1528330673.509996,-0.060714,0.109214,0.091712,-0.060315,-0.108997,-0.992211,0.000000,0.000000,0.000000,-1,-1.882014,1.813865,-0.345246,-0.211169,0.095066,-0.054436
"2018-06-07 00:17:53.520 +0000",1528330673.520070,-0.045388,0.094012,0.085631,-0.045172,-0.093873,-0.994559,0.000000,0.000000,0.000000,-1,-1.398808,1.332016,-0.566111,-0.139688,0.099519,-0.254297
"2018-06-07 00:17:53.530 +0000",1528330673.530143,-0.036266,0.085234,0.079281,-0.036127,-0.085131,-0.995715,0.000000,0.000000,0.000000,-1,-0.721658,0.681885,-0.581385,-0.076331,0.058779,-0.396726
"2018-06-07 00:17:53.540 +0000",1528330673.540217,-0.032586,0.082830,0.074470,-0.032469,-0.082736,-0.996042,0.000000,0.000000,0.000000,-1,-0.113284,0.243794,-0.420554,-0.032534,0.023745,-0.473394
"2018-06-07 00:17:53.550 +0000",1528330673.550290,-0.030664,0.084792,0.072004,-0.030549,-0.084691,-0.995939,0.000000,0.000000,0.000000,-1,0.265229,0.164834,-0.188236,0.052812,0.041875,-0.323946
"2018-06-07 00:17:53.560 +0000",1528330673.560363,-0.027756,0.088327,0.072203,-0.027644,-0.088212,-0.995718,0.000000,0.000000,0.000000,-1,0.351221,0.359358,0.078893,0.117595,0.066514,-0.163492
"2018-06-07 00:17:53.570 +0000",1528330673.570437,-0.020288,0.090271,0.075041,-0.020204,-0.090149,-0.995723,0.000000,0.000000,0.000000,-1,0.129176,0.931794,0.337070,0.162325,0.112045,-0.015599
"2018-06-07 00:17:53.581 +0000",1528330673.580510,-0.005230,0.088463,0.080071,-0.005210,-0.088348,-0.996076,0.000000,0.000000,0.000000,-1,-0.281811,1.753092,0.549076,0.183784,0.138625,0.112134
"2018-06-07 00:17:53.591 +0000",1528330673.590584,0.018879,0.082235,0.086817,0.018814,-0.082142,-0.996443,0.000000,0.000000,0.000000,-1,-0.738628,2.687602,0.696977,0.168976,0.140629,0.167082
"2018-06-07 00:17:53.601 +0000",1528330673.600657,0.052390,0.071621,0.094666,0.052232,-0.071559,-0.996068,0.000000,0.000000,0.000000,-1,-1.194650,3.602778,0.743709,0.114364,0.152873,0.210606
"2018-06-07 00:17:53.611 +0000",1528330673.610730,0.091266,0.057724,0.102483,0.090988,-0.057692,-0.994179,0.000000,0.000000,0.000000,-1,-1.487204,3.961388,0.635707,0.066971,0.123488,0.171197
"2018-06-07 00:17:53.621 +0000",1528330673.620804,0.130772,0.043170,0.108806,0.130278,-0.043156,-0.990538,0.000000,0.000000,0.000000,-1,-1.492726,3.930520,0.401139,-0.020338,0.062230,-0.015703
"2018-06-07 00:17:53.631 +0000",1528330673.630877,0.163014,0.030687,0.112802,0.162217,-0.030682,-0.986278,0.000000,0.000000,0.000000,-1,-1.176698,2.808351,0.145450,-0.106247,0.076291,-0.147816
"2018-06-07 00:17:53.641 +0000",1528330673.640951,0.177124,0.021981,0.113383,0.176157,-0.021979,-0.984117,0.000000,0.000000,0.000000,-1,-0.800746,1.048818,-0.175694,-0.087824,0.125220,-0.211348
"2018-06-07 00:17:53.651 +0000",1528330673.651024,0.183142,0.011804,0.112219,0.182108,-0.011804,-0.983208,0.000000,0.000000,0.000000,-1,-1.079740,0.524923,-0.299202,-0.069818,0.126702,0.074654
"2018-06-07 00:17:53.661 +0000",1528330673.661098,0.188461,-0.001637,0.112931,0.187347,0.001637,-0.982292,0.000000,0.000000,0.000000,-1,-1.368867,0.542062,-0.127463,-0.017196,0.148220,0.223397
"2018-06-07 00:17:53.671 +0000",1528330673.671171,0.194300,-0.015304,0.115741,0.193057,0.015304,-0.981068,0.000000,0.000000,0.000000,-1,-1.384012,0.563173,0.064098,0.114377,0.244508,0.107152
"2018-06-07 00:17:53.681 +0000",1528330673.681244,0.199285,-0.028421,0.120659,0.197889,0.028417,-0.979812,0.000000,0.000000,0.000000,-1,-1.356218,0.474502,0.285359,0.240389,0.249109,0.047821
"2018-06-07 00:17:53.691 +0000",1528330673.691318,0.206472,-0.040128,0.128242,0.204843,0.040117,-0.977972,0.000000,0.000000,0.000000,-1,-1.271565,0.788583,0.575428,0.294288,0.184401,-0.006769
"2018-06-07 00:17:53.701 +0000",1528330673.701391,0.218246,-0.051049,0.138045,0.216236,0.051027,-0.975007,0.000000,0.000000,0.000000,-1,-1.268144,1.236815,0.758508,0.263577,0.228575,0.030106
"2018-06-07 00:17:53.711 +0000",1528330673.711465,0.250975,-0.082181,0.150232,0.247511,0.082089,-0.965401,0.000000,0.000000,0.000000,-1,-1.306049,1.732535,0.846088,0.185564,0.257908,0.055688
"2018-06-07 00:17:53.722 +0000",1528330673.721538,0.273776,-0.092959,0.162749,0.269201,0.092826,-0.958600,0.000000,0.000000,0.000000,-1,-1.367197,2.300607,0.942538,0.150995,0.209970,0.081479
"2018-06-07 00:17:53.732 +0000",1528330673.731611,0.302455,-0.103356,0.176046,0.296275,0.103172,-0.949514,0.000000,0.000000,0.000000,-1,-1.351077,2.853841,0.963472,0.107915,0.175057,0.037603
"2018-06-07 00:17:53.742 +0000",1528330673.741685,0.336151,-0.112720,0.189165,0.327762,0.112482,-0.938040,0.000000,0.000000,0.000000,-1,-1.267255,3.313068,0.933422,0.043957,0.165182,-0.024652
"2018-06-07 00:17:53.752 +0000",1528330673.751758,0.389581,-0.137529,0.204966,0.376214,0.137096,-0.916334,0.000000,0.000000,0.000000,-1,-1.360644,3.790062,0.999562,0.080695,0.125950,0.041303
"2018-06-07 00:17:53.762 +0000",1528330673.761832,0.434354,-0.148344,0.222910,0.416203,0.147801,-0.897179,0.000000,0.000000,0.000000,-1,-1.829461,4.324499,1.254967,0.233059,0.103038,0.318871
"2018-06-07 00:17:53.772 +0000",1528330673.771905,0.487081,-0.163656,0.247271,0.461795,0.162927,-0.871895,0.000000,0.000000,0.000000,-1,-2.650481,5.067554,1.528996,0.281431,0.097708,0.609795
"2018-06-07 00:17:53.782 +0000",1528330673.781978,0.549875,-0.185298,0.279210,0.513635,0.184240,-0.837995,0.000000,0.000000,0.000000,-1,-3.670129,5.889648,1.671404,0.268271,0.111186,0.875943
"2018-06-07 00:17:53.792 +0000",1528330673.792052,0.642435,-0.223930,0.323050,0.584188,0.222063,-0.780649,0.000000,0.000000,0.000000,-1,-4.594000,6.792294,1.778332,0.296458,0.185851,0.945825
"2018-06-07 00:17:53.802 +0000",1528330673.802125,0.729473,-0.251825,0.372453,0.645456,0.249172,-0.722011,0.000000,0.000000,0.000000,-1,-5.328664,7.710349,2.001041,0.362784,0.242527,0.868068
"2018-06-07 00:17:53.812 +0000",1528330673.812199,0.826122,-0.275128,0.432096,0.707654,0.271670,-0.652243,0.000000,0.000000,0.000000,-1,-5.742748,8.097203,2.670015,0.446383,0.207273,0.582968
"2018-06-07 00:17:53.822 +0000",1528330673.822272,0.923324,-0.284800,0.502574,0.765482,0.280966,-0.578875,0.000000,0.000000,0.000000,-1,-5.780649,7.466412,3.853628,0.618994,-0.015066,0.098162
"2018-06-07 00:17:53.832 +0000",1528330673.832346,1.006008,-0.283463,0.576955,0.810992,0.279682,-0.513877,0.000000,0.000000,0.000000,-1,-5.732821,5.612282,4.146078,0.573712,0.222271,-0.381494
"2018-06-07 00:17:53.842 +0000",1528330673.842419,1.066345,-0.278743,0.647289,0.841649,0.275148,-0.464672,0.000000,0.000000,0.000000,-1,-5.452931,3.553518,3.651105,0.192134,0.692595,-0.615437
"2018-06-07 00:17:53.852 +0000",1528330673.852492,1.106710,-0.277307,0.709154,0.860068,0.273766,-0.430505,0.000000,0.000000,0.000000,-1,-5.062909,1.981637,2.568919,-0.338004,0.719184,-0.593100
"2018-06-07 00:17:53.863 +0000",1528330673.862566,1.135852,-0.283912,0.761552,0.870588,0.280113,-0.404492,0.000000,0.000000,0.000000,-1,-4.695135,1.353636,1.258265,-0.707288,0.519325,-0.539875
"2018-06-07 00:17:53.873 +0000",1528330673.872639,1.161975,-0.297584,0.805960,0.877260,0.293211,-0.380056,0.000000,0.000000,0.000000,-1,-4.306330,1.352237,0.277458,-0.622042,0.134600,-0.463038
"2018-06-07 00:17:53.883 +0000",1528330673.882713,1.188515,-0.313498,0.843975,0.882595,0.308388,-0.354857,0.000000,0.000000,0.000000,-1,-3.786597,1.545315,-0.132991,-0.304440,-0.242271,-0.440157
"2018-06-07 00:17:53.893 +0000",1528330673.892786,1.214155,-0.326507,0.875943,0.887567,0.320737,-0.330684,0.000000,0.000000,0.000000,-1,-3.098966,1.532764,-0.087274,0.002600,-0.431088,-0.443837
"2018-06-07 00:17:53.903 +0000",1528330673.902859,1.237493,-0.335276,0.902140,0.892351,0.329030,-0.308949,0.000000,0.000000,0.000000,-1,-2.459169,1.458262,0.040122,0.177642,-0.408314,-0.409923
"2018-06-07 00:17:53.913 +0000",1528330673.912933,1.259484,-0.341057,0.924183,0.897102,0.334484,-0.288666,0.000000,0.000000,0.000000,-1,-2.056600,1.456771,0.139230,0.264915,-0.312725,-0.350083
"2018-06-07 00:17:53.923 +0000",1528330673.923006,1.281770,-0.344222,0.944513,0.902293,0.337464,-0.268300,0.000000,0.000000,0.000000,-1,-1.874188,1.570744,0.306945,0.241689,-0.298066,-0.329708
"2018-06-07 00:17:53.933 +0000",1528330673.933080,1.305354,-0.344567,0.964359,0.908257,0.337789,-0.246916,0.000000,0.000000,0.000000,-1,-1.768960,1.707288,0.538365,0.258750,-0.317754,-0.315157
"2018-06-07 00:17:53.943 +0000",1528330673.943153,1.330403,-0.342015,0.984810,0.914990,0.335386,-0.224295,0.000000,0.000000,0.000000,-1,-1.812958,1.844474,0.779809,0.248981,-0.368681,-0.366434
"2018-06-07 00:17:53.953 +0000",1528330673.953227,1.358592,-0.337184,1.006681,0.922522,0.330831,-0.198756,0.000000,0.000000,0.000000,-1,-1.908174,2.168370,0.965980,0.185236,-0.356847,-0.364187
"2018-06-07 00:17:53.963 +0000",1528330673.963300,1.391028,-0.331266,1.028506,0.930392,0.325240,-0.169081,0.000000,0.000000,0.000000,-1,-1.865479,2.617508,0.958584,0.069913,-0.282958,-0.364916
"2018-06-07 00:17:53.973 +0000",1528330673.973373,1.423675,-0.325541,1.046596,0.937242,0.319821,-0.138892,0.000000,0.000000,0.000000,-1,-1.446169,2.602896,0.794083,-0.063875,-0.197430,-0.473840
"2018-06-07 00:17:53.983 +0000",1528330673.983447,1.447881,-0.319541,1.055625,0.942217,0.314131,-0.116400,0.000000,0.000000,0.000000,-1,-0.505643,1.931964,0.678110,-0.068681,-0.158308,-0.730387
"2018-06-07 00:17:53.994 +0000",1528330673.993520,1.462623,-0.312716,1.055088,0.945939,0.307644,-0.102726,0.000000,0.000000,0.000000,-1,0.295259,1.366648,0.676783,-0.057115,-0.124005,-0.888119
"2018-06-07 00:17:54.004 +0000",1528330674.003594,1.474037,-0.304957,1.050824,0.949398,0.300252,-0.092151,0.000000,0.000000,0.000000,-1,0.499696,1.257177,0.739460,-0.057735,-0.130422,-0.609158
"2018-06-07 00:17:54.014 +0000",1528330674.013667,1.485807,-0.297060,1.046998,0.952750,0.292710,-0.081169,0.000000,0.000000,0.000000,-1,0.400893,1.278829,0.746203,-0.067694,-0.137590,-0.277595
"2018-06-07 00:17:54.024 +0000",1528330674.023740,1.497398,-0.289198,1.044499,0.955892,0.285184,-0.070287,0.000000,0.000000,0.000000,-1,0.265313,1.203718,0.766732,-0.029119,-0.123242,-0.157619
"2018-06-07 00:17:54.034 +0000",1528330674.033814,1.510285,-0.280767,1.040081,0.959084,0.277093,-0.058107,0.000000,0.000000,0.000000,-1,0.567130,1.441428,0.825893,-0.086190,0.190375,-0.208068
"2018-06-07 00:17:54.044 +0000",1528330674.043887,1.522390,-0.271872,1.033697,0.962141,0.268535,-0.046610,0.000000,0.000000,0.000000,-1,0.655327,1.330724,0.843655,-0.196715,0.636876,-0.268651
"2018-06-07 00:17:54.054 +0000",1528330674.053961,1.532334,-0.264291,1.028834,0.964564,0.261225,-0.037118,0.000000,0.000000,0.000000,-1,0.425787,1.039862,0.679836,-0.299052,0.315634,-0.086295
"2018-06-07 00:17:54.064 +0000",1528330674.064034,1.540569,-0.259009,1.026866,0.966202,0.256123,-0.029215,0.000000,0.000000,0.000000,-1,0.141932,0.819309,0.467943,-0.390961,0.131267,-0.083655
"2018-06-07 00:17:54.074 +0000",1528330674.074107,1.547193,-0.255306,1.027007,0.967316,0.252542,-0.022836,0.000000,0.000000,0.000000,-1,-0.046952,0.581113,0.337529,-0.298310,0.120871,-0.175986
"2018-06-07 00:17:54.084 +0000",1528330674.084181,1.551525,-0.253312,1.028884,0.967908,0.250612,-0.018655,0.000000,0.000000,0.000000,-1,-0.221695,0.327846,0.145728,-0.202450,0.081481,-0.236639
"2018-06-07 00:17:54.094 +0000",1528330674.094254,1.554570,-0.254121,1.032464,0.967757,0.251395,-0.015704,0.000000,0.000000,0.000000,-1,-0.382081,0.184835,-0.151199,-0.158278,0.035607,-0.135343
"2018-06-07 00:17:54.104 +0000",1528330674.104328,1.557297,-0.257901,1.036789,0.966839,0.255052,-0.013052,0.000000,0.000000,0.000000,-1,-0.418728,0.156287,-0.436244,-0.099880,-0.025148,-0.085504
"2018-06-07 00:17:54.114 +0000",1528330674.114401,1.559589,-0.264512,1.040216,0.965159,0.261438,-0.010817,0.000000,0.000000,0.000000,-1,-0.296714,0.145786,-0.731281,-0.080455,-0.125589,-0.151155
"2018-06-07 00:17:54.124 +0000",1528330674.124475,1.563244,-0.274313,1.040919,0.962584,0.270886,-0.007270,0.000000,0.000000,0.000000,-1,0.007908,0.437755,-1.044142,-0.096632,-0.164349,-0.197641
"2018-06-07 00:17:54.135 +0000",1528330674.134548,1.571014,-0.285957,1.037194,0.959392,0.282076,0.000209,0.000000,0.000000,0.000000,-1,0.478974,1.030253,-1.184406,-0.049083,0.015638,-0.183085
"2018-06-07 00:17:54.145 +0000",1528330674.144621,1.582379,-0.299052,1.028572,0.955552,0.294615,0.011068,0.000000,0.000000,0.000000,-1,0.928312,1.461414,-1.347679,-0.049271,0.151278,-0.139349
"2018-06-07 00:17:54.155 +0000",1528330674.154695,1.594893,-0.315138,1.017852,0.950477,0.309947,0.022908,0.000000,0.000000,0.000000,-1,1.049227,1.577193,-1.652027,-0.132789,0.055806,0.028515
"2018-06-07 00:17:54.165 +0000",1528330674.164768,1.607740,-0.332803,1.008746,0.944485,0.326694,0.034908,0.000000,0.000000,0.000000,-1,0.845993,1.546163,-1.717266,-0.090054,0.005414,0.209614
"2018-06-07 00:17:54.175 +0000",1528330674.174842,1.619317,-0.348211,1.003288,0.938878,0.341217,0.045591,0.000000,0.000000,0.000000,-1,0.474248,1.227702,-1.414009,0.128154,0.001434,0.309970
"2018-06-07 00:17:54.185 +0000",1528330674.184915,1.627155,-0.360189,1.002378,0.934344,0.352451,0.052714,0.000000,0.000000,0.000000,-1,0.039860,0.664342,-1.129607,0.253187,-0.007145,0.338292
"2018-06-07 00:17:54.195 +0000",1528330674.194988,1.630792,-0.370967,1.005295,0.930300,0.362517,0.055881,0.000000,0.000000,0.000000,-1,-0.274094,0.125336,-1.075598,0.170179,0.010362,0.254635
"2018-06-07 00:17:54.205 +0000",1528330674.205062,1.629900,-0.380967,1.009889,0.926684,0.371818,0.054834,0.000000,0.000000,0.000000,-1,-0.374061,-0.374788,-0.989697,0.145139,0.022804,0.029639
"2018-06-07 00:17:54.215 +0000",1528330674.215135,1.625823,-0.390083,1.014019,0.923477,0.380265,0.050868,0.000000,0.000000,0.000000,-1,-0.299892,-0.586782,-0.910886,0.171890,-0.010240,-0.200602
"2018-06-07 00:17:54.225 +0000",1528330674.225209,1.621998,-0.399339,1.016416,0.920110,0.388809,0.047152,0.000000,0.000000,0.000000,-1,-0.121257,-0.408311,-0.943045,0.120676,-0.045166,-0.261187
"2018-06-07 00:17:54.235 +0000",1528330674.235282,1.620926,-0.410056,1.016719,0.915946,0.398661,0.045955,0.000000,0.000000,0.000000,-1,0.077176,-0.008533,-1.118742,0.067178,-0.037760,-0.246531
"2018-06-07 00:17:54.245 +0000",1528330674.245356,1.623858,-0.423015,1.014779,0.910571,0.410512,0.048362,0.000000,0.000000,0.000000,-1,0.298822,0.495710,-1.321080,0.017133,-0.012181,-0.249015
"2018-06-07 00:17:54.255 +0000",1528330674.255429,1.630649,-0.438018,1.010984,0.903972,0.424146,0.054170,0.000000,0.000000,0.000000,-1,0.460661,0.926231,-1.522420,0.015218,-0.019712,-0.269273
"2018-06-07 00:17:54.266 +0000",1528330674.265502,1.639348,-0.456150,1.005709,0.895646,0.440495,0.061495,0.000000,0.000000,0.000000,-1,0.641620,1.124634,-1.860024,-0.048112,-0.081837,-0.288347
"2018-06-07 00:17:54.276 +0000",1528330674.275576,1.645422,-0.479557,0.995822,0.884730,0.461386,0.066147,0.000000,0.000000,0.000000,-1,1.223684,0.989153,-2.413557,-0.239725,-0.282065,-0.521652
"2018-06-07 00:17:54.286 +0000",1528330674.285649,1.648230,-0.510718,0.978651,0.869779,0.488803,0.067486,0.000000,0.000000,0.000000,-1,1.864586,1.172938,-3.145929,-0.558683,-0.517902,-0.891811
"2018-06-07 00:17:54.296 +0000",1528330674.295723,1.653549,-0.547232,0.956212,0.851045,0.520326,0.070588,0.000000,0.000000,0.000000,-1,2.338567,1.818083,-3.535597,-0.510545,-0.366273,-0.627671
"2018-06-07 00:17:54.306 +0000",1528330674.305796,1.660151,-0.586322,0.926070,0.829658,0.553301,0.074332,0.000000,0.000000,0.000000,-1,2.991110,2.362633,-3.639845,-0.199271,-0.101717,-0.290229
"2018-06-07 00:17:54.316 +0000",1528330674.315868,1.663337,-0.620571,0.896752,0.810065,0.581500,0.075179,0.000000,0.000000,0.000000,-1,2.457892,1.741210,-2.925127,0.320199,-0.001819,0.348497
"2018-06-07 00:17:54.326 +0000",1528330674.325942,1.662213,-0.643733,0.881249,0.796521,0.600186,0.073019,0.000000,0.000000,0.000000,-1,1.124218,0.452439,-1.978179,0.812793,0.159992,1.491480
"2018-06-07 00:17:54.336 +0000",1528330674.336015,1.657377,-0.662968,0.875660,0.785216,0.615459,0.068155,0.000000,0.000000,0.000000,-1,0.492851,-0.281973,-1.872380,0.384309,0.056691,1.485541
"2018-06-07 00:17:54.346 +0000",1528330674.346089,1.652449,-0.684145,0.873209,0.772377,0.632011,0.063207,0.000000,0.000000,0.000000,-1,0.363801,-0.305272,-2.161501,-0.066475,-0.121955,0.659312
"2018-06-07 00:17:54.356 +0000",1528330674.356162,1.645500,-0.708724,0.867420,0.757075,0.650866,0.056662,0.000000,0.000000,0.000000,-1,0.752700,-0.363302,-2.463741,-0.198786,-0.085451,-0.067877
"2018-06-07 00:17:54.366 +0000",1528330674.366236,1.629809,-0.735477,0.855245,0.740220,0.670941,0.043733,0.000000,0.000000,0.000000,-1,1.176661,-0.916941,-2.620140,-0.182373,0.009143,-0.482820
"2018-06-07 00:17:54.376 +0000",1528330674.376309,1.605014,-0.762907,0.838170,0.722407,0.691025,0.024729,0.000000,0.000000,0.000000,-1,1.425408,-1.406734,-2.672690,-0.143718,0.000747,-0.421488
"2018-06-07 00:17:54.386 +0000",1528330674.386382,1.576084,-0.790863,0.816632,0.703222,0.710960,0.003718,0.000000,0.000000,0.000000,-1,1.619373,-1.302567,-2.777169,-0.102255,-0.051399,-0.317378
"2018-06-07 00:17:54.396 +0000",1528330674.396456,1.547515,-0.819505,0.793079,0.682398,0.730808,-0.015890,0.000000,0.000000,0.000000,-1,1.558958,-1.159675,-2.860515,-0.120462,0.104565,-0.247599
"2018-06-07 00:17:54.407 +0000",1528330674.406529,1.518208,-0.845357,0.771797,0.662546,0.748208,-0.034874,0.000000,0.000000,0.000000,-1,1.238217,-1.416741,-2.504489,-0.079279,0.282966,-0.143363
"2018-06-07 00:17:54.417 +0000",1528330674.416603,1.487829,-0.865302,0.754275,0.646180,0.761291,-0.053735,0.000000,0.000000,0.000000,-1,0.937679,-1.806562,-1.890742,0.037262,0.184846,0.004922
"2018-06-07 00:17:54.427 +0000",1528330674.426676,1.456869,-0.878346,0.739792,0.634286,0.769684,-0.072577,0.000000,0.000000,0.000000,-1,0.749794,-1.966943,-1.203441,0.131736,0.194946,-0.034326
"2018-06-07 00:17:54.437 +0000",1528330674.436749,1.432064,-0.884601,0.727818,0.627511,0.773662,-0.087619,0.000000,0.000000,0.000000,-1,0.669603,-1.355161,-0.547486,0.157081,0.287861,-0.060666
"2018-06-07 00:17:54.447 +0000",1528330674.446823,1.417161,-0.885545,0.715796,0.625413,0.774260,-0.096849,0.000000,0.000000,0.000000,-1,0.755702,-0.322594,-0.124102,0.138656,0.303178,-0.081236
"2018-06-07 00:17:54.457 +0000",1528330674.456896,1.407279,-0.884333,0.703662,0.625350,0.773493,-0.103177,0.000000,0.000000,0.000000,-1,0.763642,-0.014764,0.034895,0.170121,0.105658,-0.059146
"2018-06-07 00:17:54.467 +0000",1528330674.466970,1.398893,-0.882158,0.692987,0.626119,0.772112,-0.108705,0.000000,0.000000,0.000000,-1,0.674776,-0.023048,0.118975,0.082361,0.139158,0.030259
"2018-06-07 00:17:54.477 +0000",1528330674.477043,1.390288,-0.878777,0.683153,0.627725,0.769959,-0.114557,0.000000,0.000000,0.000000,-1,0.679017,-0.130127,0.263866,-0.027414,0.284255,-0.021414
"2018-06-07 00:17:54.487 +0000",1528330674.487117,1.380807,-0.873713,0.673245,0.630432,0.766718,-0.121237,0.000000,0.000000,0.000000,-1,0.719985,-0.200877,0.408778,0.021546,0.249228,-0.125329
"2018-06-07 00:17:54.497 +0000",1528330674.497190,1.370049,-0.868025,0.663809,0.633354,0.763054,-0.128880,0.000000,0.000000,0.000000,-1,0.695762,-0.432729,0.445807,0.052208,0.218666,-0.074153
"2018-06-07 00:17:54.507 +0000",1528330674.507263,1.352466,-0.863820,0.653002,0.634117,0.760329,-0.140689,0.000000,0.000000,0.000000,-1,0.790967,-1.111920,0.168248,-0.015618,0.136292,-0.013974
"2018-06-07 00:17:54.517 +0000",1528330674.517337,1.328520,-0.863529,0.641530,0.630782,0.760140,-0.155885,0.000000,0.000000,0.000000,-1,0.673721,-1.597976,-0.233037,-0.159819,0.071555,0.038896
"2018-06-07 00:17:54.527 +0000",1528330674.527410,1.308828,-0.866474,0.635349,0.625425,0.762051,-0.167695,0.000000,0.000000,0.000000,-1,0.167491,-1.385716,-0.400137,-0.108747,0.012501,0.071351
"2018-06-07 00:17:54.537 +0000",1528330674.537484,1.300289,-0.871368,0.637876,0.620369,0.765210,-0.172031,0.000000,0.000000,0.000000,-1,-0.434475,-0.903090,-0.443607,-0.042916,-0.048261,0.071979
"2018-06-07 00:17:54.548 +0000",1528330674.547557,1.303105,-0.877627,0.649665,0.616220,0.769225,-0.169013,0.000000,0.000000,0.000000,-1,-1.003543,-0.586611,-0.373618,-0.007547,-0.059539,0.033668
"2018-06-07 00:17:54.558 +0000",1528330674.557630,1.308085,-0.884263,0.666765,0.612111,0.773448,-0.164613,0.000000,0.000000,0.000000,-1,-1.284932,-0.934413,-0.343867,0.037700,0.009221,-0.082976
"2018-06-07 00:17:54.568 +0000",1528330674.567704,1.310105,-0.891088,0.687015,0.607328,0.777756,-0.162012,0.000000,0.000000,0.000000,-1,-1.427429,-1.517837,-0.317271,-0.146634,0.187561,-0.150519
"2018-06-07 00:17:54.578 +0000",1528330674.577777,1.308204,-0.898092,0.708583,0.601743,0.782139,-0.161748,0.000000,0.000000,0.000000,-1,-1.501465,-1.928529,-0.336582,-0.223539,0.223201,-0.109706
"2018-06-07 00:17:54.588 +0000",1528330674.587851,1.307061,-0.906587,0.734043,0.595121,0.787405,-0.160698,0.000000,0.000000,0.000000,-1,-1.832437,-2.156296,-0.430068,-0.108656,0.120844,-0.029854
"2018-06-07 00:17:54.598 +0000",1528330674.597924,1.310890,-0.916469,0.767966,0.588184,0.793458,-0.156410,0.000000,0.000000,0.000000,-1,-2.399765,-2.304033,-0.392626,0.087582,-0.018677,-0.008644
"2018-06-07 00:17:54.608 +0000",1528330674.607998,1.325486,-0.927082,0.813778,0.582202,0.799872,-0.145756,0.000000,0.000000,0.000000,-1,-3.107440,-2.106539,-0.312985,0.098965,-0.181448,0.082768
"2018-06-07 00:17:54.618 +0000",1528330674.618071,1.355542,-0.937873,0.870648,0.577854,0.806302,-0.126343,0.000000,0.000000,0.000000,-1,-3.615899,-1.299103,-0.263219,0.009900,-0.184231,0.199448
"2018-06-07 00:17:54.628 +0000",1528330674.628144,1.400994,-0.947101,0.932517,0.575639,0.811726,-0.098695,0.000000,0.000000,0.000000,-1,-3.702713,-0.140447,-0.180052,0.009795,-0.134541,0.212770
"2018-06-07 00:17:54.638 +0000",1528330674.638218,1.455863,-0.952938,0.990793,0.575469,0.815121,-0.066434,0.000000,0.000000,0.000000,-1,-3.285511,0.972304,-0.072357,0.128175,-0.216259,0.070538
"2018-06-07 00:17:54.648 +0000",1528330674.648291,1.508466,-0.956986,1.040462,0.574868,0.817459,-0.035878,0.000000,0.000000,0.000000,-1,-2.734483,1.236696,-0.190095,0.079918,-0.175598,-0.253322
"2018-06-07 00:17:54.658 +0000",1528330674.658365,1.558091,-0.960190,1.081385,0.573318,0.819301,-0.007285,0.000000,0.000000,0.000000,-1,-2.217029,1.780518,-0.210136,-0.076934,-0.104960,-0.328409
"2018-06-07 00:17:54.668 +0000",1528330674.668438,1.609711,-0.960113,1.114522,0.572993,0.819256,0.022309,0.000000,0.000000,0.000000,-1,-1.785100,2.641229,0.062442,0.016576,-0.282543,-0.072312
"2018-06-07 00:17:54.679 +0000",1528330674.678511,1.663087,-0.956157,1.141215,0.574210,0.816982,0.053145,0.000000,0.000000,0.000000,-1,-1.481324,3.266533,0.365821,0.072550,-0.270595,0.002458
"2018-06-07 00:17:54.689 +0000",1528330674.688585,1.716838,-0.949085,1.163455,0.576227,0.812883,0.084757,0.000000,0.000000,0.000000,-1,-1.323775,3.605211,0.597709,0.062644,-0.135912,0.000357
"2018-06-07 00:17:54.699 +0000",1528330674.698658,1.769579,-0.940319,1.183378,0.577921,0.807746,0.116418,0.000000,0.000000,0.000000,-1,-1.288542,3.613835,0.658966,0.028921,0.017892,0.010795
"2018-06-07 00:17:54.709 +0000",1528330674.708732,1.819368,-0.932626,1.202953,0.577417,0.803187,0.146561,0.000000,0.000000,0.000000,-1,-1.290475,3.267992,0.406263,-0.026666,0.247274,-0.006805
"2018-06-07 00:17:54.719 +0000",1528330674.718805,1.863555,-0.929153,1.222228,0.573046,0.801114,0.172727,0.000000,0.000000,0.000000,-1,-1.127274,2.726180,-0.125980,-0.068331,0.437748,-0.058805
"2018-06-07 00:17:54.729 +0000",1528330674.728878,1.898796,-0.932876,1.235756,0.563778,0.803336,0.191848,0.000000,0.000000,0.000000,-1,-0.459492,2.280457,-0.724713,-0.046199,0.462915,-0.091598
"2018-06-07 00:17:54.739 +0000",1528330674.738952,1.916151,-0.942194,1.238048,0.553296,0.808850,0.199061,0.000000,0.000000,0.000000,-1,0.392887,1.284789,-0.947917,0.085102,0.173297,-0.237040
"2018-06-07 00:17:54.749 +0000",1528330674.749025,1.914534,-0.953818,1.228677,0.544728,0.815630,0.194984,0.000000,0.000000,0.000000,-1,1.043355,0.380637,-0.876742,0.172893,-0.078448,-0.170814
"2018-06-07 00:17:54.759 +0000",1528330674.759099,1.897427,-0.965834,1.210838,0.538661,0.822524,0.182479,0.000000,0.000000,0.000000,-1,1.440312,-0.450838,-0.764976,0.109181,-0.059233,-0.003936
"2018-06-07 00:17:54.769 +0000",1528330674.769172,1.867417,-0.977842,1.186024,0.534409,0.829293,0.163335,0.000000,0.000000,0.000000,-1,1.768065,-1.091330,-0.692294,0.012038,-0.002389,-0.027578
"2018-06-07 00:17:54.779 +0000",1528330674.779246,1.826326,-0.989947,1.155267,0.530916,0.835997,0.138697,0.000000,0.000000,0.000000,-1,2.002965,-1.688903,-0.706403,-0.043321,-0.016585,-0.068446
"2018-06-07 00:17:54.789 +0000",1528330674.789319,1.775965,-1.002353,1.120967,0.527030,0.842740,0.109674,0.000000,0.000000,0.000000,-1,2.105089,-2.286509,-0.800881,-0.015174,-0.027295,-0.117120
"2018-06-07 00:17:54.799 +0000",1528330674.799392,1.719258,-1.014373,1.083625,0.522343,0.849149,0.078123,0.000000,0.000000,0.000000,-1,2.168482,-2.499207,-0.823157,0.047802,-0.071745,-0.140836
"2018-06-07 00:17:54.809 +0000",1528330674.809466,1.665834,-1.024295,1.044818,0.517356,0.854348,0.049317,0.000000,0.000000,0.000000,-1,2.089042,-1.779854,-0.688579,0.090340,-0.155556,0.031707
"2018-06-07 00:17:54.820 +0000",1528330674.819539,1.627895,-1.030273,1.009021,0.513746,0.857440,0.029366,0.000000,0.000000,0.000000,-1,1.783699,-0.331923,-0.359898,0.129397,-0.229541,0.277000
"2018-06-07 00:17:54.830 +0000",1528330674.829613,1.621867,-1.028956,0.986890,0.515041,0.856761,0.026327,0.000000,0.000000,0.000000,-1,0.853636,1.776599,0.404544,0.157780,-0.231441,0.397730
"2018-06-07 00:17:54.840 +0000",1528330674.839686,1.634699,-1.021196,0.979653,0.521280,0.852733,0.033357,0.000000,0.000000,0.000000,-1,0.225259,1.772981,0.851289,0.160879,-0.035824,0.246169
"2018-06-07 00:17:54.850 +0000",1528330674.849759,1.644832,-1.013356,0.975457,0.527566,0.848612,0.039130,0.000000,0.000000,0.000000,-1,0.156163,1.222119,0.753037,0.038703,0.007971,-0.172691
"2018-06-07 00:17:54.860 +0000",1528330674.859833,1.649671,-1.007364,0.972798,0.532430,0.845427,0.042083,0.000000,0.000000,0.000000,-1,0.068020,0.517933,0.555423,-0.196554,0.034532,-0.300643
"2018-06-07 00:17:54.870 +0000",1528330674.869906,1.649368,-1.002696,0.972762,0.536371,0.842925,0.042230,0.000000,0.000000,0.000000,-1,-0.071082,-0.216346,0.432058,-0.314356,0.057085,-0.332071
"2018-06-07 00:17:54.880 +0000",1528330674.879980,1.645242,-0.999713,0.975575,0.539046,0.841316,0.040204,0.000000,0.000000,0.000000,-1,-0.205534,-0.748274,0.225370,-0.291945,0.026390,-0.264539
"2018-06-07 00:17:54.890 +0000",1528330674.890053,1.640618,-0.998836,0.980573,0.539962,0.840841,0.037763,0.000000,0.000000,0.000000,-1,-0.293091,-0.906837,0.020737,-0.206374,0.077433,-0.116712
"2018-06-07 00:17:54.900 +0000",1528330674.900127,1.636801,-0.999246,0.986894,0.539758,0.841063,0.035678,0.000000,0.000000,0.000000,-1,-0.349039,-0.883508,-0.082329,-0.010477,0.070710,-0.028568
"2018-06-07 00:17:54.910 +0000",1528330674.910200,1.635250,-0.999132,0.994651,0.539909,0.841002,0.034847,0.000000,0.000000,0.000000,-1,-0.441403,-0.781058,0.033274,0.079095,0.079531,0.041981
"2018-06-07 00:17:54.920 +0000",1528330674.920273,1.635272,-0.997053,1.003117,0.541651,0.839875,0.034972,0.000000,0.000000,0.000000,-1,-0.468031,-0.680859,0.205730,0.040578,-0.013505,0.035356
"2018-06-07 00:17:54.930 +0000",1528330674.930347,1.638216,-0.994158,1.012935,0.543970,0.838300,0.036730,0.000000,0.000000,0.000000,-1,-0.617927,-0.431263,0.272414,-0.074610,-0.029188,0.016508
"2018-06-07 00:17:54.940 +0000",1528330674.940420,1.650609,-0.993334,1.028667,0.544161,0.837851,0.043523,0.000000,0.000000,0.000000,-1,-0.870852,0.004234,-0.081779,-0.176592,-0.214544,0.116770
"2018-06-07 00:17:54.950 +0000",1528330674.950494,1.658639,-0.995415,1.036121,0.542056,0.838985,0.047738,0.000000,0.000000,0.000000,-1,-0.147924,0.237631,-0.286052,-0.029361,-0.295329,0.002723
"2018-06-07 00:17:54.961 +0000",1528330674.960567,1.651128,-0.999500,1.024402,0.538979,0.841201,0.043390,0.000000,0.000000,0.000000,-1,0.907162,0.158490,-0.347859,0.241768,0.087342,0.022100
"2018-06-07 00:17:54.971 +0000",1528330674.970640,1.631010,-1.002733,1.002954,0.537025,0.842944,0.032375,0.000000,0.000000,0.000000,-1,1.159500,-0.288265,-0.189465,0.244317,0.293561,0.068714
"2018-06-07 00:17:54.981 +0000",1528330674.980714,1.614977,-1.004281,0.987421,0.536170,0.843776,0.023704,0.000000,0.000000,0.000000,-1,0.720893,-0.281035,-0.109918,0.065911,0.131672,0.045006
"2018-06-07 00:17:54.991 +0000",1528330674.990787,1.600840,-1.007040,0.976333,0.534123,0.845254,0.016052,0.000000,0.000000,0.000000,-1,0.590395,-0.575845,-0.313774,-0.079869,0.080909,-0.192626
"2018-06-07 00:17:55.001 +0000",1528330675.000861,1.583202,-1.011682,0.965499,0.530394,0.847725,0.006580,0.000000,0.000000,0.000000,-1,0.569863,-0.888096,-0.473830,-0.118757,0.058769,-0.300465
"2018-06-07 00:17:55.011 +0000",1528330675.010934,1.567898,-1.016000,0.957298,0.526767,0.850008,-0.001527,0.000000,0.000000,0.000000,-1,0.376996,-0.794533,-0.399973,-0.066516,0.031141,-0.081329
"2018-06-07 00:17:55.021 +0000",1528330675.021008,1.556709,-1.019352,0.953148,0.523865,0.851768,-0.007380,0.000000,0.000000,0.000000,-1,0.164160,-0.773523,-0.315524,-0.038315,-0.021996,0.031825
"2018-06-07 00:17:55.031 +0000",1528330675.031081,1.547614,-1.022141,0.951721,0.521399,0.853226,-0.012089,0.000000,0.000000,0.000000,-1,0.048398,-0.756394,-0.288318,-0.062873,-0.142976,-0.011623
"2018-06-07 00:17:55.041 +0000",1528330675.041154,1.541056,-1.025951,0.951594,0.518056,0.855207,-0.015412,0.000000,0.000000,0.000000,-1,-0.022271,-0.598019,-0.406016,-0.170522,-0.212812,0.042374
"2018-06-07 00:17:55.051 +0000",1528330675.051228,1.536289,-1.030628,0.952396,0.513973,0.857622,-0.017743,0.000000,0.000000,0.000000,-1,-0.065862,-0.541839,-0.481048,-0.191432,-0.238985,0.056851
"2018-06-07 00:17:55.061 +0000",1528330675.061301,1.531052,-1.036354,0.953139,0.508957,0.860553,-0.020239,0.000000,0.000000,0.000000,-1,-0.048125,-0.590707,-0.596325,-0.152252,-0.218036,-0.015513
"2018-06-07 00:17:55.071 +0000",1528330675.071375,1.525303,-1.042966,0.952778,0.503138,0.863902,-0.022905,0.000000,0.000000,0.000000,-1,0.000706,-0.516701,-0.672592,-0.104319,-0.184535,-0.024168
"2018-06-07 00:17:55.081 +0000",1528330675.081448,1.517474,-1.050246,0.950163,0.496649,0.867546,-0.026508,0.000000,0.000000,0.000000,-1,0.144176,-0.596140,-0.744144,-0.021414,-0.158256,0.000385
"2018-06-07 00:17:55.092 +0000",1528330675.091521,1.502619,-1.057343,0.941899,0.490046,0.871053,-0.033462,0.000000,0.000000,0.000000,-1,0.441388,-0.811705,-0.713183,0.103002,-0.052709,-0.038834
"2018-06-07 00:17:55.102 +0000",1528330675.101595,1.481127,-1.063370,0.926991,0.483976,0.873998,-0.043515,0.000000,0.000000,0.000000,-1,0.745358,-0.833168,-0.628965,0.163652,-0.065358,-0.022586
"2018-06-07 00:17:55.112 +0000",1528330675.111668,1.457612,-1.067550,0.909107,0.479185,0.876022,-0.054469,0.000000,0.000000,0.000000,-1,0.802787,-0.761276,-0.456784,0.126375,-0.154662,0.031001
"2018-06-07 00:17:55.122 +0000",1528330675.121742,1.435569,-1.072058,0.894137,0.473951,0.878187,-0.064485,0.000000,0.000000,0.000000,-1,0.597301,-0.996112,-0.614041,0.032824,-0.190931,0.065171
"2018-06-07 00:17:55.132 +0000",1528330675.131815,1.407123,-1.082972,0.882513,0.462440,0.883355,-0.076372,0.000000,0.000000,0.000000,-1,0.289024,-2.125634,-1.363119,-0.294257,-0.459786,0.053011
"2018-06-07 00:17:55.142 +0000",1528330675.141889,1.378162,-1.098146,0.879064,0.446827,0.890365,-0.087155,0.000000,0.000000,0.000000,-1,-0.286654,-2.585819,-1.430905,-0.740269,-0.979079,0.249386
"2018-06-07 00:17:55.152 +0000",1528330675.151962,1.365755,-1.115948,0.894286,0.430122,0.898328,-0.089450,0.000000,0.000000,0.000000,-1,-1.256518,-2.640837,-1.781655,-0.716804,-0.139936,0.346286
"2018-06-07 00:17:55.162 +0000",1528330675.162035,1.362184,-1.146591,0.920538,0.402672,0.911366,-0.085243,0.000000,0.000000,0.000000,-1,-1.795738,-2.731280,-3.086516,-0.721276,0.464519,0.078880
"2018-06-07 00:17:55.172 +0000",1528330675.172109,1.338009,-1.193228,0.929253,0.358716,0.929564,-0.085046,0.000000,0.000000,0.000000,-1,-1.111645,-3.351099,-4.830280,-0.551557,0.040773,-0.196020
"2018-06-07 00:17:55.182 +0000",1528330675.182182,1.281650,-1.241809,0.906631,0.309672,0.946370,-0.092122,0.000000,0.000000,0.000000,-1,-0.305106,-3.470836,-4.800206,-0.105113,0.260783,-0.463237
"2018-06-07 00:17:55.192 +0000",1528330675.192256,1.205363,-1.286174,0.851582,0.262253,0.959768,-0.100343,0.000000,0.000000,0.000000,-1,0.259262,-1.829882,-4.636454,0.294174,0.054972,-0.540328
"2018-06-07 00:17:55.202 +0000",1528330675.202329,1.127053,-1.321928,0.773418,0.222452,0.969192,-0.105745,0.000000,0.000000,0.000000,-1,0.546328,0.167682,-3.831020,0.522131,-0.069274,-0.291319
"2018-06-07 00:17:55.212 +0000",1528330675.212402,1.047114,-1.346215,0.682081,0.192852,0.974887,-0.111365,0.000000,0.000000,0.000000,-1,0.817719,1.008696,-2.893384,0.605717,0.096463,-0.231882
"2018-06-07 00:17:55.222 +0000",1528330675.222476,0.967460,-1.361697,0.590221,0.170929,0.978218,-0.117778,0.000000,0.000000,0.000000,-1,0.816568,0.966232,-2.191109,0.460571,0.217781,-0.079182
"2018-06-07 00:17:55.233 +0000",1528330675.232549,0.901194,-1.374428,0.512243,0.152977,0.980782,-0.121098,0.000000,0.000000,0.000000,-1,0.349972,1.053717,-1.896135,0.148948,0.181694,0.178013
"2018-06-07 00:17:55.243 +0000",1528330675.242623,0.851089,-1.391749,0.449872,0.133923,0.984014,-0.117390,0.000000,0.000000,0.000000,-1,-0.396028,1.094383,-2.140631,-0.101117,0.332453,0.470921
"2018-06-07 00:17:55.253 +0000",1528330675.252696,0.802354,-1.415697,0.390737,0.111068,0.987996,-0.107364,0.000000,0.000000,0.000000,-1,-1.043275,0.884388,-2.493646,-0.216125,0.498027,0.421726
"2018-06-07 00:17:55.263 +0000",1528330675.262770,0.744122,-1.445102,0.325942,0.084911,0.992111,-0.092227,0.000000,0.000000,0.000000,-1,-1.592495,0.482072,-2.731277,-0.193691,0.349961,0.247607
"2018-06-07 00:17:55.273 +0000",1528330675.272843,0.660376,-1.478106,0.240926,0.056775,0.995707,-0.073097,0.000000,0.000000,0.000000,-1,-1.994521,-0.085079,-2.830967,-0.064633,0.163976,0.037010
"2018-06-07 00:17:55.283 +0000",1528330675.282916,0.510565,-1.511672,0.097294,0.028875,0.998253,-0.051552,0.000000,0.000000,0.000000,-1,-2.216574,-0.843787,-2.680999,0.061320,-0.061210,-0.219688
"2018-06-07 00:17:55.293 +0000",1528330675.292990,0.135948,-1.540475,-0.266301,0.004108,0.999540,-0.030034,0.000000,0.000000,0.000000,-1,-2.096250,-1.143600,-2.309974,0.188641,-0.092741,-0.383830
"2018-06-07 00:17:55.303 +0000",1528330675.303063,-0.881552,-1.549797,-1.276056,-0.016200,0.999780,-0.013349,0.000000,0.000000,0.000000,-1,-1.469628,-0.644066,-1.905513,0.292384,0.086021,-0.434786
"2018-06-07 00:17:55.313 +0000",1528330675.313137,-1.449714,-1.537418,-1.841159,-0.033124,0.999443,-0.004030,0.000000,0.000000,0.000000,-1,-0.748639,-0.258012,-1.602709,0.287427,0.279350,-0.455641
"2018-06-07 00:17:55.323 +0000",1528330675.323210,-1.566028,-1.523981,-1.954656,-0.046796,0.998904,-0.000223,0.000000,0.000000,0.000000,-1,-0.262687,-0.316212,-1.275920,0.229871,0.318967,-0.291647
"2018-06-07 00:17:55.333 +0000",1528330675.333283,-1.582324,-1.513692,-1.966222,-0.057069,0.998370,0.000658,0.000000,0.000000,0.000000,-1,-0.009829,-0.529882,-0.940443,0.165284,0.249311,-0.062303
"2018-06-07 00:17:55.343 +0000",1528330675.343357,-1.575956,-1.506845,-1.953090,-0.063905,0.997956,0.000330,0.000000,0.000000,0.000000,-1,0.092677,-0.706710,-0.589457,0.091355,0.097991,0.049719
"2018-06-07 00:17:55.353 +0000",1528330675.353430,-1.557919,-1.503466,-1.927599,-0.067271,0.997734,-0.000866,0.000000,0.000000,0.000000,-1,0.201486,-0.723162,-0.258455,0.025325,0.010521,0.036816
"2018-06-07 00:17:55.364 +0000",1528330675.363504,-1.508504,-1.502251,-1.872418,-0.068357,0.997652,-0.004264,0.000000,0.000000,0.000000,-1,0.440337,-0.490564,-0.069012,-0.008120,0.008772,-0.026010
"2018-06-07 00:17:55.374 +0000",1528330675.373577,-1.434118,-1.500696,-1.796313,-0.069386,0.997544,-0.009543,0.000000,0.000000,0.000000,-1,0.540127,-0.020193,-0.128108,-0.031291,0.123199,-0.037225
"2018-06-07 00:17:55.384 +0000",1528330675.383651,-1.380753,-1.498279,-1.745932,-0.071147,0.997372,-0.013686,0.000000,0.000000,0.000000,-1,0.325937,0.388934,-0.188815,-0.071202,0.199467,0.058684
"2018-06-07 00:17:55.394 +0000",1528330675.393724,-1.364063,-1.496095,-1.732921,-0.073040,0.997211,-0.015319,0.000000,0.000000,0.000000,-1,0.077136,0.320215,-0.197050,-0.047459,0.071041,-0.000337
"2018-06-07 00:17:55.404 +0000",1528330675.403797,-1.371033,-1.493857,-1.740888,-0.075333,0.997042,-0.015252,0.000000,0.000000,0.000000,-1,-0.029361,0.028108,-0.243909,-0.017425,-0.020677,-0.161185
"2018-06-07 00:17:55.414 +0000",1528330675.413871,-1.378169,-1.491257,-1.747593,-0.077981,0.996838,-0.015210,0.000000,0.000000,0.000000,-1,0.021281,-0.050708,-0.263616,0.024667,-0.009274,-0.199512
"2018-06-07 00:17:55.424 +0000",1528330675.423944,-1.370330,-1.488637,-1.739684,-0.080419,0.996627,-0.016341,0.000000,0.000000,0.000000,-1,0.144909,0.017563,-0.231431,0.058919,-0.007751,-0.137178
"2018-06-07 00:17:55.434 +0000",1528330675.434018,-1.349931,-1.486295,-1.720140,-0.082347,0.996432,-0.018489,0.000000,0.000000,0.000000,-1,0.224242,0.117464,-0.179691,0.046077,0.001096,-0.053517
"2018-06-07 00:17:55.444 +0000",1528330675.444091,-1.326206,-1.484259,-1.698136,-0.083854,0.996258,-0.020929,0.000000,0.000000,0.000000,-1,0.218655,0.198543,-0.146097,-0.002419,0.006275,0.000009
"2018-06-07 00:17:55.454 +0000",1528330675.454164,-1.309137,-1.482790,-1.683333,-0.084900,0.996130,-0.022736,0.000000,0.000000,0.000000,-1,0.140486,0.229934,-0.092045,-0.054214,-0.014120,0.006882
"2018-06-07 00:17:55.464 +0000",1528330675.464238,-1.294815,-1.482274,-1.670528,-0.085060,0.996084,-0.024090,0.000000,0.000000,0.000000,-1,0.124075,0.130681,0.005588,-0.087395,0.012674,-0.043507
"2018-06-07 00:17:55.474 +0000",1528330675.474311,-1.274693,-1.482735,-1.651041,-0.084120,0.996125,-0.025663,0.000000,0.000000,0.000000,-1,0.161059,0.056743,0.122533,-0.105943,0.062377,-0.105746
"2018-06-07 00:17:55.484 +0000",1528330675.484385,-1.248464,-1.484485,-1.625420,-0.081765,0.996277,-0.027308,0.000000,0.000000,0.000000,-1,0.149365,0.083519,0.274304,-0.102882,0.086135,-0.117254
"2018-06-07 00:17:55.494 +0000",1528330675.494458,-0.593042,-1.470645,-0.974285,-0.055880,0.994989,-0.082912,0.000000,0.000000,0.000000,-1,0.085819,0.242840,0.459924,-0.095411,0.102637,-0.013814
"2018-06-07 00:17:55.505 +0000",1528330675.504532,-0.368337,-1.462473,-0.754242,-0.038927,0.994139,-0.100860,0.000000,0.000000,0.000000,-1,0.059885,0.447188,0.666026,-0.071196,0.077730,0.055892
"2018-06-07 00:17:55.515 +0000",1528330675.514605,-0.319628,-1.470069,-0.710132,-0.031596,0.994931,-0.095463,0.000000,0.000000,0.000000,-1,-0.050348,0.528712,0.785912,-0.028936,-0.025144,0.038364
"2018-06-07 00:17:55.525 +0000",1528330675.524678,-0.476035,-1.484323,-0.872029,-0.039578,0.996263,-0.076763,0.000000,0.000000,0.000000,-1,-0.592235,0.645969,0.213100,-0.040302,-0.095934,0.073940
"2018-06-07 00:17:55.535 +0000",1528330675.534752,-0.797597,-1.486398,-1.199089,-0.060329,0.996441,-0.058874,0.000000,0.000000,0.000000,-1,-0.540728,0.619821,-0.062459,-0.017171,-0.192196,0.010657
"2018-06-07 00:17:55.545 +0000",1528330675.544825,-0.933431,-1.475721,-1.339939,-0.076292,0.995484,-0.056491,0.000000,0.000000,0.000000,-1,-0.212844,0.491228,-0.070038,0.057081,-0.248551,-0.094861
"2018-06-07 00:17:55.555 +0000",1528330675.554899,-0.928811,-1.475835,-1.338704,-0.075938,0.995495,-0.056774,0.000000,0.000000,0.000000,-1,0.062668,0.282913,0.050273,0.081691,-0.215664,-0.103275
"2018-06-07 00:17:55.565 +0000",1528330675.564972,-0.902237,-1.476292,-1.314120,-0.074045,0.995538,-0.058489,0.000000,0.000000,0.000000,-1,0.168635,0.185917,0.214322,0.081308,-0.194253,-0.057112
"2018-06-07 00:17:55.575 +0000",1528330675.575045,-0.871258,-1.477732,-1.284587,-0.071101,0.995673,-0.059831,0.000000,0.000000,0.000000,-1,0.096523,0.153489,0.307973,0.074641,-0.148535,-0.009932
"2018-06-07 00:17:55.585 +0000",1528330675.585119,-0.845812,-1.480687,-1.259909,-0.067354,0.995943,-0.059670,0.000000,0.000000,0.000000,-1,-0.064679,0.053917,0.385499,0.073152,-0.067690,-0.011542
"2018-06-07 00:17:55.595 +0000",1528330675.595192,-0.828211,-1.484922,-1.242447,-0.063186,0.996315,-0.057995,0.000000,0.000000,0.000000,-1,-0.200358,0.021586,0.413683,0.079269,0.033241,-0.053699
"2018-06-07 00:17:55.605 +0000",1528330675.605266,-0.815827,-1.489518,-1.230604,-0.059128,0.996699,-0.055635,0.000000,0.000000,0.000000,-1,-0.241253,0.061050,0.399908,0.080322,0.041357,-0.040175
"2018-06-07 00:17:55.615 +0000",1528330675.615339,-0.792390,-1.493903,-1.207162,-0.054696,0.997045,-0.053936,0.000000,0.000000,0.000000,-1,-0.135592,-0.020164,0.465044,0.078759,0.028422,-0.050052
"2018-06-07 00:17:55.625 +0000",1528330675.625413,-0.747184,-1.498126,-1.159506,-0.049340,0.997361,-0.053263,0.000000,0.000000,0.000000,-1,-0.032142,-0.302441,0.569399,0.048928,0.088287,-0.093084
"2018-06-07 00:17:55.635 +0000",1528330675.635486,-0.695568,-1.502058,-1.104298,-0.044014,0.997638,-0.052728,0.000000,0.000000,0.000000,-1,-0.058050,-0.340764,0.528473,-0.009377,0.171551,-0.077567
"2018-06-07 00:17:55.646 +0000",1528330675.645559,-0.655530,-1.505775,-1.060781,-0.039607,0.997887,-0.051507,0.000000,0.000000,0.000000,-1,-0.117164,-0.319648,0.427559,-0.053181,0.148536,-0.007285
"2018-06-07 00:17:55.656 +0000",1528330675.655633,-0.634168,-1.509081,-1.036801,-0.036544,0.998096,-0.049685,0.000000,0.000000,0.000000,-1,-0.187525,-0.248970,0.280562,-0.060456,0.043316,0.023959
"2018-06-07 00:17:55.666 +0000",1528330675.665706,-0.632559,-1.511644,-1.032072,-0.034952,0.998251,-0.047681,0.000000,0.000000,0.000000,-1,-0.182248,-0.327449,0.150169,-0.059164,0.007776,-0.013705
"2018-06-07 00:17:55.676 +0000",1528330675.675780,-0.638143,-1.513984,-1.033979,-0.033826,0.998387,-0.045608,0.000000,0.000000,0.000000,-1,-0.204088,-0.364735,0.126446,-0.029315,-0.021778,-0.047944
"2018-06-07 00:17:55.686 +0000",1528330675.685853,-0.650273,-1.516516,-1.042681,-0.032846,0.998527,-0.043183,0.000000,0.000000,0.000000,-1,-0.234428,-0.326312,0.106190,-0.041891,-0.066749,0.006592
"2018-06-07 00:17:55.696 +0000",1528330675.695926,-0.666744,-1.519201,-1.056232,-0.031894,0.998669,-0.040528,0.000000,0.000000,0.000000,-1,-0.262962,-0.291340,0.124643,-0.043347,-0.093426,0.036713
"2018-06-07 00:17:55.706 +0000",1528330675.706000,-0.678131,-1.522494,-1.064803,-0.030290,0.998834,-0.037601,0.000000,0.000000,0.000000,-1,-0.288611,-0.271882,0.179616,-0.030531,-0.119531,0.026248
"2018-06-07 00:17:55.716 +0000",1528330675.716073,-0.621640,-1.519043,-1.006229,-0.030127,0.998661,-0.042054,0.000000,0.000000,0.000000,-1,-0.319092,-0.199488,0.173443,-0.082514,0.010647,0.063294
"2018-06-07 00:17:55.726 +0000",1528330675.726147,-0.716180,-1.518266,-1.099528,-0.034471,0.998621,-0.039607,0.000000,0.000000,0.000000,-1,-0.345743,-0.084451,0.210410,-0.053190,-0.074594,0.050639
"2018-06-07 00:17:55.736 +0000",1528330675.736220,-0.859208,-1.517910,-1.242088,-0.040035,0.998602,-0.034522,0.000000,0.000000,0.000000,-1,-0.312384,-0.020791,0.235259,-0.071034,-0.017614,0.045950
"2018-06-07 00:17:55.746 +0000",1528330675.746294,-0.908184,-1.514642,-1.290975,-0.044245,0.998424,-0.034525,0.000000,0.000000,0.000000,-1,-0.307077,-0.000976,0.225624,-0.083394,0.061543,0.037256
"2018-06-07 00:17:55.756 +0000",1528330675.756367,-0.866159,-1.512587,-1.249331,-0.044320,0.998306,-0.037683,0.000000,0.000000,0.000000,-1,-0.303778,0.034260,0.202054,-0.079627,0.071686,0.031732
"2018-06-07 00:17:55.766 +0000",1528330675.766440,-0.919194,-1.513145,-1.302859,-0.045809,0.998339,-0.034940,0.000000,0.000000,0.000000,-1,-0.298425,0.057396,0.185975,-0.066572,0.051405,0.028516
"2018-06-07 00:17:55.777 +0000",1528330675.776514,-1.010144,-1.515019,-1.394808,-0.047207,0.998445,-0.029639,0.000000,0.000000,0.000000,-1,-0.284810,0.132099,0.181858,-0.063816,0.030150,0.038093
"2018-06-07 00:17:55.787 +0000",1528330675.786587,-1.069241,-1.517037,-1.456300,-0.047107,0.998555,-0.025830,0.000000,0.000000,0.000000,-1,-0.260882,0.275923,0.194054,-0.071499,-0.000447,0.064847
"2018-06-07 00:17:55.797 +0000",1528330675.796661,-1.213101,-1.515896,-1.603568,-0.051390,0.998493,-0.019208,0.000000,0.000000,0.000000,-1,-0.237918,0.372562,0.200736,-0.079363,-0.026020,0.068204
"2018-06-07 00:17:55.807 +0000",1528330675.806734,-1.305376,-1.515470,-1.699683,-0.053353,0.998470,-0.014503,0.000000,0.000000,0.000000,-1,-0.226278,0.385822,0.187841,-0.076606,-0.024288,0.044471
"2018-06-07 00:17:55.817 +0000",1528330675.816807,-1.387666,-1.513283,-1.785629,-0.056511,0.998347,-0.010466,0.000000,0.000000,0.000000,-1,-0.226080,0.360669,0.165178,-0.052116,-0.013636,0.022399
"2018-06-07 00:17:55.827 +0000",1528330675.826881,-1.443806,-1.510397,-1.845278,-0.059868,0.998177,-0.007644,0.000000,0.000000,0.000000,-1,-0.219512,0.342160,0.132840,-0.017876,-0.001076,0.017470
"2018-06-07 00:17:55.837 +0000",1528330675.836954,-1.479393,-1.507932,-1.884072,-0.062553,0.998025,-0.005734,0.000000,0.000000,0.000000,-1,-0.206851,0.300490,0.130539,0.022117,0.004859,0.018627
"2018-06-07 00:17:55.847 +0000",1528330675.847028,-1.506993,-1.506477,-1.914491,-0.064137,0.997932,-0.004098,0.000000,0.000000,0.000000,-1,-0.193229,0.266461,0.139014,0.056904,-0.003532,0.018746
"2018-06-07 00:17:55.857 +0000",1528330675.857101,-1.544856,-1.505237,-1.954875,-0.065482,0.997852,-0.001699,0.000000,0.000000,0.000000,-1,-0.188982,0.244532,0.135713,0.072776,-0.006091,0.029165
"2018-06-07 00:17:55.867 +0000",1528330675.867175,-1.605033,-1.503676,-2.017324,-0.067023,0.997748,0.002296,0.000000,0.000000,0.000000,-1,-0.182852,0.218094,0.161438,0.089423,-0.019126,0.036782
"2018-06-07 00:17:55.877 +0000",1528330675.877248,-1.662929,-1.501426,-2.077571,-0.069016,0.997595,0.006377,0.000000,0.000000,0.000000,-1,-0.165059,0.248863,0.165789,0.107972,-0.025549,0.029695
"2018-06-07 00:17:55.887 +0000",1528330675.887321,-1.694495,-1.499341,-2.112473,-0.070843,0.997448,0.008808,0.000000,0.000000,0.000000,-1,-0.148261,0.358740,0.153163,0.118329,-0.003353,0.048000
"2018-06-07 00:17:55.897 +0000",1528330675.897395,-1.708130,-1.498806,-2.130579,-0.071244,0.997410,0.009846,0.000000,0.000000,0.000000,-1,-0.123057,0.465347,0.140507,0.137101,-0.006290,0.050289
"2018-06-07 00:17:55.907 +0000",1528330675.907468,-1.719879,-1.499628,-2.147540,-0.070314,0.997469,0.010561,0.000000,0.000000,0.000000,-1,-0.108275,0.531330,0.122379,0.141603,-0.015703,0.049696
"2018-06-07 00:17:55.918 +0000",1528330675.917542,-1.738748,-1.501667,-2.172283,-0.068098,0.997611,0.011546,0.000000,0.000000,0.000000,-1,-0.134572,0.587251,0.120451,0.139204,-0.010978,0.056539
"2018-06-07 00:17:55.928 +0000",1528330675.927615,-1.765613,-1.504674,-2.204986,-0.064819,0.997815,0.012790,0.000000,0.000000,0.000000,-1,-0.145162,0.566306,0.134398,0.143799,-0.001996,0.045712
"2018-06-07 00:17:55.938 +0000",1528330675.937688,-1.800080,-1.508023,-2.244842,-0.061086,0.998030,0.014257,0.000000,0.000000,0.000000,-1,-0.113798,0.521282,0.158935,0.157720,0.019410,0.024089
"2018-06-07 00:17:55.948 +0000",1528330675.947762,-1.837838,-1.511951,-2.287343,-0.056721,0.998269,0.015517,0.000000,0.000000,0.000000,-1,-0.050978,0.456545,0.193023,0.178867,0.061316,-0.004348
"2018-06-07 00:17:55.958 +0000",1528330675.957835,-1.876479,-1.516559,-2.330490,-0.051692,0.998529,0.016313,0.000000,0.000000,0.000000,-1,-0.023738,0.458780,0.201572,0.194225,0.099646,-0.028749
"2018-06-07 00:17:55.968 +0000",1528330675.967909,-1.942528,-1.520987,-2.401565,-0.046384,0.998760,0.018083,0.000000,0.000000,0.000000,-1,-0.052927,0.503851,0.167350,0.187055,0.090550,-0.024935
"2018-06-07 00:17:55.978 +0000",1528330675.977982,-2.018774,-1.524752,-2.481810,-0.041483,0.998940,0.019935,0.000000,0.000000,0.000000,-1,-0.065117,0.357964,0.131457,0.167780,0.098365,-0.056266
"2018-06-07 00:17:55.988 +0000",1528330675.988056,-2.095176,-1.527620,-2.561459,-0.037357,0.999068,0.021607,0.000000,0.000000,0.000000,-1,-0.068024,0.336122,0.102358,0.162296,0.072084,-0.069016
"2018-06-07 00:17:55.998 +0000",1528330675.998129,-2.182301,-1.530036,-2.652482,-0.033363,0.999169,0.023393,0.000000,0.000000,0.000000,-1,-0.056609,0.385504,0.114307,0.167564,-0.036691,-0.008729
"2018-06-07 00:17:56.008 +0000",1528330676.008202,-2.280628,-1.532598,-2.754474,-0.028962,0.999270,0.024885,0.000000,0.000000,0.000000,-1,-0.054311,0.370241,0.090593,0.158372,-0.104785,-0.013212
"2018-06-07 00:17:56.018 +0000",1528330676.018276,-2.383758,-1.535282,-2.861533,-0.024399,0.999369,0.025782,0.000000,0.000000,0.000000,-1,-0.064759,0.397701,0.079941,0.150909,-0.043132,-0.016368
"2018-06-07 00:17:56.028 +0000",1528330676.028349,-2.495114,-1.538179,-2.976944,-0.019636,0.999468,0.026020,0.000000,0.000000,0.000000,-1,-0.082561,0.409762,0.071412,0.139036,-0.014178,-0.005741
"2018-06-07 00:17:56.038 +0000",1528330676.038423,-2.610666,-1.540661,-3.096627,-0.015246,0.999546,0.025966,0.000000,0.000000,0.000000,-1,-0.105434,0.415318,0.040286,0.127337,0.000729,-0.007656
"2018-06-07 00:17:56.048 +0000",1528330676.048496,-2.727963,-1.542420,3.065336,-0.011396,0.999597,0.025963,0.000000,0.000000,0.000000,-1,-0.084271,0.382512,0.024008,0.138517,0.004217,-0.022911
"2018-06-07 00:17:56.059 +0000",1528330676.058569,-2.825073,-1.544221,2.964860,-0.008263,0.999647,0.025227,0.000000,0.000000,0.000000,-1,-0.076763,0.324406,0.010914,0.159859,-0.001112,-0.024358
"2018-06-07 00:17:56.069 +0000",1528330676.068643,-2.925713,-1.545615,2.861216,-0.005387,0.999683,0.024567,0.000000,0.000000,0.000000,-1,-0.110297,0.295797,0.004454,0.175538,-0.010364,0.000824
"2018-06-07 00:17:56.079 +0000",1528330676.078716,-3.057082,-1.544969,2.726887,-0.002178,0.999667,0.025705,0.000000,0.000000,0.000000,-1,-0.153448,0.298925,0.015318,0.192729,-0.014986,0.021338
"2018-06-07 00:17:56.089 +0000",1528330676.088790,3.100740,-1.543653,2.598653,0.001108,0.999632,0.027095,0.000000,0.000000,0.000000,-1,-0.181874,0.282335,0.026091,0.201697,-0.021360,0.018788
"2018-06-07 00:17:56.099 +0000",1528330676.098863,2.998893,-1.541931,2.494227,0.004102,0.999583,0.028554,0.000000,0.000000,0.000000,-1,-0.195428,0.247205,0.017415,0.191912,-0.022014,0.000774
"2018-06-07 00:17:56.109 +0000",1528330676.108937,2.917534,-1.539798,2.410801,0.006884,0.999520,0.030208,0.000000,0.000000,0.000000,-1,-0.192164,0.198948,0.008662,0.175459,-0.014992,-0.012554
"2018-06-07 00:17:56.119 +0000",1528330676.119010,2.845469,-1.537675,2.337159,0.009659,0.999452,0.031658,0.000000,0.000000,0.000000,-1,-0.185748,0.149603,-0.000102,0.161575,-0.017838,-0.008602
"2018-06-07 00:17:56.129 +0000",1528330676.129083,2.772658,-1.535868,2.263200,0.012588,0.999390,0.032557,0.000000,0.000000,0.000000,-1,-0.176176,0.112351,-0.010988,0.149995,-0.020935,-0.006006
"2018-06-07 00:17:56.139 +0000",1528330676.139157,2.696036,-1.533871,2.185601,0.015907,0.999318,0.033307,0.000000,0.000000,0.000000,-1,-0.172940,0.101423,-0.020708,0.134240,-0.022496,-0.002835
"2018-06-07 00:17:56.149 +0000",1528330676.149230,2.634282,-1.531071,2.123092,0.019295,0.999211,0.034714,0.000000,0.000000,0.000000,-1,-0.173871,0.080617,-0.033674,0.106270,-0.017171,-0.010177
"2018-06-07 00:17:56.159 +0000",1528330676.159304,2.580910,-1.527596,2.069132,0.022967,0.999067,0.036577,0.000000,0.000000,0.000000,-1,-0.165405,0.066397,-0.040189,0.088956,-0.007063,-0.026369
"2018-06-07 00:17:56.169 +0000",1528330676.169377,2.531420,-1.524042,2.019035,0.026781,0.998907,0.038303,0.000000,0.000000,0.000000,-1,-0.160168,0.072994,-0.039106,0.080595,-0.011572,-0.028217
"2018-06-07 00:17:56.179 +0000",1528330676.179450,2.486442,-1.521031,1.973239,0.030307,0.998762,0.039443,0.000000,0.000000,0.000000,-1,-0.149726,0.102644,-0.034741,0.078443,-0.025770,-0.025680
"2018-06-07 00:17:56.190 +0000",1528330676.189524,2.449710,-1.518488,1.935459,0.033357,0.998632,0.040262,0.000000,0.000000,0.000000,-1,-0.153954,0.121290,-0.033602,0.081984,-0.041692,-0.012491
"2018-06-07 00:17:56.200 +0000",1528330676.199597,2.423892,-1.515925,1.908516,0.036069,0.998495,0.041316,0.000000,0.000000,0.000000,-1,-0.164489,0.120145,-0.029278,0.083956,-0.049230,-0.001124
"2018-06-07 00:17:56.210 +0000",1528330676.209671,2.407970,-1.513362,1.891513,0.038435,0.998351,0.042636,0.000000,0.000000,0.000000,-1,-0.182308,0.115722,-0.033553,0.082293,-0.042724,0.004941
"2018-06-07 00:17:56.220 +0000",1528330676.219744,2.401965,-1.510949,1.884488,0.040313,0.998210,0.044184,0.000000,0.000000,0.000000,-1,-0.192814,0.110199,-0.032469,0.077179,-0.028559,0.001089
"2018-06-07 00:17:56.230 +0000",1528330676.229817,2.402856,-1.508966,1.884260,0.041607,0.998089,0.045683,0.000000,0.000000,0.000000,-1,-0.200216,0.126627,-0.028102,0.074314,-0.020550,-0.003798
"2018-06-07 00:17:56.240 +0000",1528330676.239891,2.405578,-1.507472,1.885639,0.042482,0.997996,0.046900,0.000000,0.000000,0.000000,-1,-0.206474,0.149699,-0.036626,0.071150,-0.018351,-0.000620
"2018-06-07 00:17:56.250 +0000",1528330676.249964,2.411344,-1.506113,1.889755,0.043116,0.997909,0.048155,0.000000,0.000000,0.000000,-1,-0.207480,0.180473,-0.046215,0.071691,-0.017394,0.005236
"2018-06-07 00:17:56.260 +0000",1528330676.260038,2.418071,-1.504690,1.894744,0.043730,0.997816,0.049507,0.000000,0.000000,0.000000,-1,-0.208555,0.180457,-0.042985,0.067537,-0.019499,0.014717
"2018-06-07 00:17:56.270 +0000",1528330676.270111,2.428799,-1.502899,1.903834,0.044362,0.997696,0.051322,0.000000,0.000000,0.000000,-1,-0.227379,0.171663,-0.052649,0.060633,-0.019653,0.028390
"2018-06-07 00:17:56.280 +0000",1528330676.280185,2.444477,-1.500774,1.917794,0.044915,0.997549,0.053638,0.000000,0.000000,0.000000,-1,-0.251442,0.184827,-0.066539,0.045066,-0.021567,0.038632
"2018-06-07 00:17:56.290 +0000",1528330676.290258,2.463491,-1.498618,1.934956,0.045236,0.997396,0.056157,0.000000,0.000000,0.000000,-1,-0.254493,0.200251,-0.081546,0.034140,-0.020330,0.022609
"2018-06-07 00:17:56.300 +0000",1528330676.300331,2.483151,-1.496724,1.952550,0.045281,0.997258,0.058532,0.000000,0.000000,0.000000,-1,-0.249138,0.222288,-0.097629,0.035454,-0.019581,0.007081
"2018-06-07 00:17:56.310 +0000",1528330676.310405,2.503879,-1.495029,1.970951,0.045063,0.997131,0.060814,0.000000,0.000000,0.000000,-1,-0.252166,0.248707,-0.116906,0.036175,-0.020416,-0.001381
"2018-06-07 00:17:56.320 +0000",1528330676.320478,2.527911,-1.493368,1.992448,0.044543,0.997004,0.063234,0.000000,0.000000,0.000000,-1,-0.260441,0.269623,-0.136188,0.032010,-0.020792,-0.004397
"2018-06-07 00:17:56.331 +0000",1528330676.330552,2.553812,-1.491650,2.015709,0.043841,0.996870,0.065793,0.000000,0.000000,0.000000,-1,-0.262425,0.277369,-0.152296,0.029508,-0.018201,-0.015867
"2018-06-07 00:17:56.341 +0000",1528330676.340625,2.581318,-1.489978,2.040547,0.042901,0.996736,0.068386,0.000000,0.000000,0.000000,-1,-0.246534,0.281881,-0.170605,0.040168,-0.020158,-0.040264
"2018-06-07 00:17:56.351 +0000",1528330676.350698,2.609140,-1.488365,2.065560,0.041798,0.996605,0.070939,0.000000,0.000000,0.000000,-1,-0.213939,0.298465,-0.177085,0.059062,-0.010383,-0.056077
"2018-06-07 00:17:56.361 +0000",1528330676.360772,2.637223,-1.486896,2.090463,0.040498,0.996482,0.073368,0.000000,0.000000,0.000000,-1,-0.177231,0.336980,-0.174906,0.082487,-0.008903,-0.059055
"2018-06-07 00:17:56.371 +0000",1528330676.370845,2.661611,-1.485994,2.111232,0.039112,0.996406,0.075129,0.000000,0.000000,0.000000,-1,-0.141627,0.379856,-0.166258,0.104596,-0.016426,-0.061976
"2018-06-07 00:17:56.381 +0000",1528330676.380919,2.680943,-1.485630,2.126710,0.037813,0.996376,0.076196,0.000000,0.000000,0.000000,-1,-0.100704,0.396423,-0.163076,0.127592,-0.024314,-0.074564
"2018-06-07 00:17:56.391 +0000",1528330676.390992,2.696351,-1.485782,2.138295,0.036569,0.996388,0.076633,0.000000,0.000000,0.000000,-1,-0.049265,0.383371,-0.157854,0.149268,-0.030904,-0.096668
"2018-06-07 00:17:56.401 +0000",1528330676.401065,2.708726,-1.486492,2.147265,0.035321,0.996448,0.076437,0.000000,0.000000,0.000000,-1,0.015898,0.333051,-0.157074,0.173785,-0.027714,-0.123770
"2018-06-07 00:17:56.411 +0000",1528330676.411139,2.717648,-1.487938,2.153433,0.034045,0.996569,0.075436,0.000000,0.000000,0.000000,-1,0.073785,0.262983,-0.163864,0.203565,-0.018389,-0.140484
"2018-06-07 00:17:56.421 +0000",1528330676.421212,2.720165,-1.490261,2.153963,0.032909,0.996759,0.073410,0.000000,0.000000,0.000000,-1,0.129620,0.185247,-0.176050,0.238774,-0.008127,-0.145782
"2018-06-07 00:17:56.431 +0000",1528330676.431286,2.717909,-1.493215,2.150348,0.031863,0.996992,0.070651,0.000000,0.000000,0.000000,-1,0.190692,0.130584,-0.189257,0.271832,-0.001844,-0.148318
"2018-06-07 00:17:56.441 +0000",1528330676.441359,2.714171,-1.496550,2.145832,0.030750,0.997245,0.067507,0.000000,0.000000,0.000000,-1,0.259092,0.068239,-0.198200,0.294675,0.005990,-0.156893
"2018-06-07 00:17:56.451 +0000",1528330676.451433,2.704817,-1.500598,2.136644,0.029672,0.997537,0.063557,0.000000,0.000000,0.000000,-1,0.360028,-0.045651,-0.197687,0.317283,0.027289,-0.151479
"2018-06-07 00:17:56.462 +0000",1528330676.461506,2.697863,-1.505327,2.131585,0.028087,0.997858,0.059088,0.000000,0.000000,0.000000,-1,0.463886,-0.238738,-0.157612,0.352909,0.074500,-0.132224
"2018-06-07 00:17:56.472 +0000",1528330676.471579,2.673005,-1.510390,2.110390,0.027264,0.998176,0.053861,0.000000,0.000000,0.000000,-1,0.522263,-0.403568,-0.079703,0.385136,0.150322,-0.119275
"2018-06-07 00:17:56.482 +0000",1528330676.481653,2.621146,-1.515400,2.063245,0.027531,0.998466,0.048034,0.000000,0.000000,0.000000,-1,0.587680,-0.492763,0.029604,0.400310,0.239327,-0.123122
"2018-06-07 00:17:56.492 +0000",1528330676.491726,2.526151,-1.520630,1.973527,0.028947,0.998742,0.040941,0.000000,0.000000,0.000000,-1,0.731801,-0.551024,0.144198,0.380324,0.304893,-0.163179
"2018-06-07 00:17:56.502 +0000",1528330676.501800,2.362813,-1.526113,1.816298,0.031374,0.999002,0.031792,0.000000,0.000000,0.000000,-1,0.949608,-0.656221,0.243428,0.324980,0.336554,-0.180367
"2018-06-07 00:17:56.512 +0000",1528330676.511873,2.088471,-1.530661,1.549617,0.034863,0.999195,0.019854,0.000000,0.000000,0.000000,-1,1.234597,-0.829349,0.356290,0.262637,0.331295,-0.142138
"2018-06-07 00:17:56.522 +0000",1528330676.521946,1.695433,-1.530768,1.165739,0.039702,0.999199,0.004974,0.000000,0.000000,0.000000,-1,1.506627,-0.969756,0.511227,0.210421,0.305443,-0.139740
"2018-06-07 00:17:56.532 +0000",1528330676.532020,1.313402,-1.522923,0.793559,0.046273,0.998854,-0.012181,0.000000,0.000000,0.000000,-1,1.705790,-1.019420,0.706394,0.170142,0.276796,-0.158809
"2018-06-07 00:17:56.542 +0000",1528330676.542093,1.050729,-1.507787,0.540782,0.054640,0.998016,-0.031290,0.000000,0.000000,0.000000,-1,1.898593,-1.018609,0.902798,0.142381,0.241578,-0.145499
"2018-06-07 00:17:56.552 +0000",1528330676.552167,0.884472,-1.487286,0.384249,0.064525,0.996515,-0.052857,0.000000,0.000000,0.000000,-1,2.156761,-0.996614,1.064693,0.096043,0.196539,-0.183974
"2018-06-07 00:17:56.562 +0000",1528330676.562240,0.772782,-1.462516,0.281524,0.075444,0.994143,-0.077372,0.000000,0.000000,0.000000,-1,2.453077,-0.910626,1.175056,0.021083,0.157849,-0.250433
"2018-06-07 00:17:56.572 +0000",1528330676.572313,0.692532,-1.434429,0.208754,0.086798,0.990716,-0.104626,0.000000,0.000000,0.000000,-1,2.727813,-0.754145,1.214681,-0.064490,0.140799,-0.241596
"2018-06-07 00:17:56.582 +0000",1528330676.582387,0.631019,-1.403770,0.152769,0.098082,0.986083,-0.134235,0.000000,0.000000,0.000000,-1,2.979806,-0.557987,1.201767,-0.162139,0.154084,-0.167218
"2018-06-07 00:17:56.592 +0000",1528330676.592460,0.582317,-1.371079,0.106864,0.109108,0.980123,-0.165695,0.000000,0.000000,0.000000,-1,3.188973,-0.275050,1.147253,-0.259025,0.182567,-0.066788
"2018-06-07 00:17:56.603 +0000",1528330676.602534,0.542041,-1.337286,0.066191,0.119372,0.972860,-0.198225,0.000000,0.000000,0.000000,-1,3.329404,0.006917,1.016523,-0.354922,0.224802,0.053922
"2018-06-07 00:17:56.613 +0000",1528330676.612607,0.507233,-1.303616,0.028959,0.128247,0.964519,-0.230771,0.000000,0.000000,0.000000,-1,3.346422,0.152634,0.834048,-0.416623,0.274433,0.128415
"2018-06-07 00:17:56.623 +0000",1528330676.622681,0.476145,-1.271297,-0.004384,0.135234,0.955484,-0.262224,0.000000,0.000000,0.000000,-1,3.224993,0.050947,0.656549,-0.432460,0.302374,0.158845
"2018-06-07 00:17:56.633 +0000",1528330676.632754,0.448674,-1.240964,-0.032321,0.140491,0.946097,-0.291827,0.000000,0.000000,0.000000,-1,3.026349,-0.125936,0.558606,-0.405659,0.332208,0.142871
"2018-06-07 00:17:56.643 +0000",1528330676.642827,0.426855,-1.212478,-0.053479,0.145193,0.936488,-0.319232,0.000000,0.000000,0.000000,-1,2.808996,-0.206683,0.559944,-0.367361,0.352971,0.171497
"2018-06-07 00:17:56.653 +0000",1528330676.652901,0.409887,-1.185763,-0.068776,0.149675,0.926786,-0.344479,0.000000,0.000000,0.000000,-1,2.589337,-0.280958,0.587123,-0.317918,0.364108,0.196285
"2018-06-07 00:17:56.663 +0000",1528330676.662974,0.398444,-1.160770,-0.078780,0.154664,0.917110,-0.367407,0.000000,0.000000,0.000000,-1,2.377788,-0.197210,0.633028,-0.249863,0.387715,0.232306
"2018-06-07 00:17:56.673 +0000",1528330676.673048,0.390630,-1.137808,-0.084728,0.159766,0.907716,-0.387978,0.000000,0.000000,0.000000,-1,2.131920,-0.253958,0.651712,-0.175986,0.394133,0.256706
"2018-06-07 00:17:56.683 +0000",1528330676.683121,0.384691,-1.117440,-0.087802,0.164364,0.898982,-0.405975,0.000000,0.000000,0.000000,-1,1.851665,-0.338110,0.638125,-0.124493,0.361836,0.296280
"2018-06-07 00:17:56.693 +0000",1528330676.693194,0.380137,-1.099490,-0.088918,0.168474,0.890976,-0.421637,0.000000,0.000000,0.000000,-1,1.617627,-0.347446,0.614970,-0.078188,0.269729,0.340491
"2018-06-07 00:17:56.703 +0000",1528330676.703268,0.377130,-1.083046,-0.088764,0.172578,0.883389,-0.435706,0.000000,0.000000,0.000000,-1,1.486325,-0.297293,0.610038,-0.025285,0.121036,0.359123
"2018-06-07 00:17:56.713 +0000",1528330676.713341,0.376043,-1.067293,-0.087359,0.177193,0.875898,-0.448782,0.000000,0.000000,0.000000,-1,1.412423,-0.206543,0.648119,-0.005669,-0.040967,0.338797
"2018-06-07 00:17:56.723 +0000",1528330676.723415,0.377458,-1.051964,-0.084157,0.182756,0.868399,-0.460960,0.000000,0.000000,0.000000,-1,1.338241,-0.115946,0.722772,-0.006303,-0.167761,0.331764
"2018-06-07 00:17:56.733 +0000",1528330676.733488,0.381028,-1.037097,-0.078998,0.189181,0.860931,-0.472238,0.000000,0.000000,0.000000,-1,1.253547,-0.085792,0.805878,-0.021609,-0.214355,0.302972
"2018-06-07 00:17:56.744 +0000",1528330676.743561,0.385988,-1.022852,-0.072022,0.196119,0.853597,-0.482607,0.000000,0.000000,0.000000,-1,1.150069,-0.105049,0.879203,-0.044385,-0.200124,0.256777
"2018-06-07 00:17:56.754 +0000",1528330676.753635,0.392409,-1.009520,-0.063199,0.203547,0.846577,-0.491810,0.000000,0.000000,0.000000,-1,1.014078,-0.104601,0.944055,-0.066828,-0.159702,0.236606
"2018-06-07 00:17:56.764 +0000",1528330676.763708,0.400174,-0.997370,-0.052761,0.211351,0.840047,-0.499651,0.000000,0.000000,0.000000,-1,0.859337,-0.104119,0.988512,-0.103075,-0.111120,0.225283
"2018-06-07 00:17:56.774 +0000",1528330676.773782,0.408791,-0.986466,-0.041347,0.219277,0.834082,-0.506186,0.000000,0.000000,0.000000,-1,0.713264,-0.088092,0.996422,-0.158013,-0.074042,0.213874
"2018-06-07 00:17:56.784 +0000",1528330676.783855,0.418101,-0.976980,-0.028904,0.227183,0.828811,-0.511331,0.000000,0.000000,0.000000,-1,0.548272,-0.109468,1.010721,-0.216700,-0.055343,0.232538
"2018-06-07 00:17:56.794 +0000",1528330676.793929,0.427567,-0.968661,-0.015623,0.234864,0.824128,-0.515414,0.000000,0.000000,0.000000,-1,0.424348,-0.161426,1.015157,-0.259339,-0.050050,0.243625
"2018-06-07 00:17:56.804 +0000",1528330676.804002,0.436162,-0.960916,-0.003002,0.241974,0.819717,-0.519146,0.000000,0.000000,0.000000,-1,0.395467,-0.187578,0.949532,-0.311798,-0.052383,0.217831
"2018-06-07 00:17:56.814 +0000",1528330676.814075,0.442936,-0.953579,0.007637,0.248056,0.815492,-0.522915,0.000000,0.000000,0.000000,-1,0.403763,-0.189237,0.826885,-0.365259,-0.058672,0.195812
"2018-06-07 00:17:56.824 +0000",1528330676.824149,0.447405,-0.946721,0.015650,0.252804,0.811504,-0.526831,0.000000,0.000000,0.000000,-1,0.416526,-0.209410,0.671904,-0.390332,-0.088710,0.206625
"2018-06-07 00:17:56.834 +0000",1528330676.834222,0.450116,-0.940533,0.020948,0.256412,0.807873,-0.530655,0.000000,0.000000,0.000000,-1,0.419862,-0.129646,0.501101,-0.390369,-0.130550,0.232178
"2018-06-07 00:17:56.844 +0000",1528330676.844296,0.451915,-0.935239,0.023811,0.259230,0.804741,-0.534033,0.000000,0.000000,0.000000,-1,0.387387,-0.023676,0.340137,-0.376143,-0.175408,0.256155
"2018-06-07 00:17:56.854 +0000",1528330676.854369,0.453311,-0.931112,0.025045,0.261428,0.802284,-0.536652,0.000000,0.000000,0.000000,-1,0.315806,0.060085,0.213618,-0.344298,-0.223763,0.273865
"2018-06-07 00:17:56.864 +0000",1528330676.864442,0.454504,-0.928255,0.025432,0.263073,0.800575,-0.538397,0.000000,0.000000,0.000000,-1,0.219826,0.094222,0.124659,-0.307110,-0.266701,0.289267
"2018-06-07 00:17:56.875 +0000",1528330676.874516,0.455625,-0.926683,0.025440,0.264230,0.799633,-0.539231,0.000000,0.000000,0.000000,-1,0.113242,0.112897,0.050738,-0.272881,-0.292080,0.297623
"2018-06-07 00:17:56.885 +0000",1528330676.884589,0.456622,-0.926350,0.025084,0.264885,0.799432,-0.539206,0.000000,0.000000,0.000000,-1,0.015050,0.133787,-0.022120,-0.245567,-0.305856,0.291800
"2018-06-07 00:17:56.895 +0000",1528330676.894663,0.457565,-0.927168,0.024300,0.265103,0.799924,-0.538369,0.000000,0.000000,0.000000,-1,-0.074731,0.163491,-0.097123,-0.224835,-0.311093,0.284600
"2018-06-07 00:17:56.905 +0000",1528330676.904736,0.458438,-0.929133,0.023112,0.264877,0.801101,-0.536727,0.000000,0.000000,0.000000,-1,-0.166649,0.187678,-0.166760,-0.203980,-0.313690,0.277328
"2018-06-07 00:17:56.915 +0000",1528330676.914809,0.459168,-0.932381,0.021472,0.264115,0.803041,-0.534199,0.000000,0.000000,0.000000,-1,-0.273144,0.208599,-0.252506,-0.181031,-0.319047,0.271244
"2018-06-07 00:17:56.925 +0000",1528330676.924883,0.459725,-0.937152,0.019421,0.262709,0.805875,-0.530612,0.000000,0.000000,0.000000,-1,-0.407975,0.221766,-0.340362,-0.152938,-0.330136,0.263980
"2018-06-07 00:17:56.935 +0000",1528330676.934956,0.460256,-0.943731,0.017287,0.260630,0.809753,-0.525710,0.000000,0.000000,0.000000,-1,-0.572264,0.224938,-0.420650,-0.105708,-0.336166,0.261046
"2018-06-07 00:17:56.945 +0000",1528330676.945030,0.461226,-0.952124,0.015475,0.258106,0.814649,-0.519353,0.000000,0.000000,0.000000,-1,-0.740948,0.248862,-0.478279,-0.048771,-0.329862,0.261510
"2018-06-07 00:17:56.955 +0000",1528330676.955103,0.462645,-0.962211,0.014288,0.255162,0.820458,-0.511606,0.000000,0.000000,0.000000,-1,-0.907640,0.230995,-0.516672,-0.006749,-0.323510,0.251993
"2018-06-07 00:17:56.965 +0000",1528330676.965176,0.464024,-0.973842,0.013724,0.251579,0.827052,-0.502685,0.000000,0.000000,0.000000,-1,-1.054327,0.163785,-0.555255,0.009712,-0.319178,0.234329
"2018-06-07 00:17:56.975 +0000",1528330676.975250,0.465005,-0.986814,0.013620,0.247240,0.834274,-0.492807,0.000000,0.000000,0.000000,-1,-1.177904,0.085657,-0.592847,0.012464,-0.316284,0.219736
"2018-06-07 00:17:56.985 +0000",1528330676.985323,0.465627,-1.000954,0.013809,0.242226,0.841986,-0.482064,0.000000,0.000000,0.000000,-1,-1.281569,0.037215,-0.628247,0.015938,-0.321753,0.216866
"2018-06-07 00:17:56.995 +0000",1528330676.995397,0.466538,-1.015832,0.014470,0.237004,0.849919,-0.470601,0.000000,0.000000,0.000000,-1,-1.348778,0.040330,-0.630235,0.025417,-0.332646,0.206273
"2018-06-07 00:17:57.005 +0000",1528330677.005470,0.468629,-1.031067,0.016159,0.232111,0.857848,-0.458498,0.000000,0.000000,0.000000,-1,-1.404777,0.074042,-0.591286,0.036275,-0.340285,0.194827
"2018-06-07 00:17:57.016 +0000",1528330677.015543,0.472521,-1.046761,0.019639,0.227738,0.865807,-0.445548,0.000000,0.000000,0.000000,-1,-1.490286,0.092240,-0.537255,0.030517,-0.336876,0.193274
"2018-06-07 00:17:57.026 +0000",1528330677.025617,0.478753,-1.063001,0.025223,0.224003,0.873819,-0.431582,0.000000,0.000000,0.000000,-1,-1.580065,0.155421,-0.479856,0.017865,-0.322732,0.196551
"2018-06-07 00:17:57.036 +0000",1528330677.035690,0.487663,-1.079517,0.033278,0.221046,0.881730,-0.416761,0.000000,0.000000,0.000000,-1,-1.645825,0.182348,-0.400030,0.017907,-0.291413,0.200010
"2018-06-07 00:17:57.046 +0000",1528330677.045764,0.498627,-1.096183,0.044105,0.218544,0.889470,-0.401350,0.000000,0.000000,0.000000,-1,-1.708301,0.115998,-0.325860,0.014946,-0.241810,0.165678
"2018-06-07 00:17:57.056 +0000",1528330677.055837,0.510574,-1.112936,0.057157,0.216010,0.897000,-0.385655,0.000000,0.000000,0.000000,-1,-1.743149,-0.007215,-0.286340,-0.026481,-0.165662,0.092060
"2018-06-07 00:17:57.066 +0000",1528330677.065911,0.521762,-1.129550,0.071287,0.212853,0.904220,-0.370241,0.000000,0.000000,0.000000,-1,-1.727199,-0.208060,-0.286960,-0.068627,-0.087448,-0.017790
"2018-06-07 00:17:57.076 +0000",1528330677.075984,0.531105,-1.145927,0.085886,0.208774,0.911093,-0.355419,0.000000,0.000000,0.000000,-1,-1.706979,-0.445101,-0.291999,-0.086643,-0.020224,-0.100926
"2018-06-07 00:17:57.086 +0000",1528330677.086057,0.538641,-1.162343,0.100606,0.203746,0.917736,-0.340950,0.000000,0.000000,0.000000,-1,-1.705404,-0.628233,-0.337712,-0.093029,0.015293,-0.132667
"2018-06-07 00:17:57.096 +0000",1528330677.096131,0.544680,-1.178804,0.114339,0.197946,0.924150,-0.326747,0.000000,0.000000,0.000000,-1,-1.655523,-0.647584,-0.402422,-0.115427,0.031081,-0.149633
"2018-06-07 00:17:57.106 +0000",1528330677.106204,0.551200,-1.194394,0.127374,0.192503,0.929993,-0.313136,0.000000,0.000000,0.000000,-1,-1.545527,-0.517832,-0.380783,-0.128904,0.014465,-0.147526
"2018-06-07 00:17:57.116 +0000",1528330677.116278,0.560126,-1.208731,0.141685,0.188187,0.935167,-0.300079,0.000000,0.000000,0.000000,-1,-1.462295,-0.420282,-0.289260,-0.128205,-0.034792,-0.088395
"2018-06-07 00:17:57.126 +0000",1528330677.126351,0.571023,-1.222201,0.157959,0.184621,0.939853,-0.287386,0.000000,0.000000,0.000000,-1,-1.419655,-0.442361,-0.231337,-0.182484,-0.069065,-0.070906
"2018-06-07 00:17:57.136 +0000",1528330677.136424,0.582079,-1.234778,0.174941,0.181273,0.944075,-0.275431,0.000000,0.000000,0.000000,-1,-1.326360,-0.514693,-0.198416,-0.282653,-0.072905,-0.142050
"2018-06-07 00:17:57.146 +0000",1528330677.146498,0.590726,-1.245921,0.190327,0.177778,0.947690,-0.265099,0.000000,0.000000,0.000000,-1,-1.146618,-0.607478,-0.204476,-0.339246,-0.073484,-0.250816
"2018-06-07 00:17:57.157 +0000",1528330677.156571,0.596086,-1.255852,0.202368,0.173903,0.950814,-0.256341,0.000000,0.000000,0.000000,-1,-0.995011,-0.591484,-0.253181,-0.368559,-0.048058,-0.264442
"2018-06-07 00:17:57.167 +0000",1528330677.166645,0.599393,-1.265277,0.211561,0.169687,0.953691,-0.248354,0.000000,0.000000,0.000000,-1,-0.909563,-0.520751,-0.310180,-0.363779,-0.037752,-0.193388
"2018-06-07 00:17:57.177 +0000",1528330677.176718,0.601031,-1.274386,0.218337,0.165174,0.956391,-0.240900,0.000000,0.000000,0.000000,-1,-0.845197,-0.466592,-0.355347,-0.335706,-0.031098,-0.213827
"2018-06-07 00:17:57.187 +0000",1528330677.186791,0.602072,-1.283214,0.223510,0.160636,0.958933,-0.233760,0.000000,0.000000,0.000000,-1,-0.796831,-0.356596,-0.375575,-0.289558,-0.031625,-0.227345
"2018-06-07 00:17:57.197 +0000",1528330677.196865,0.603176,-1.291759,0.227409,0.156241,0.961321,-0.226827,0.000000,0.000000,0.000000,-1,-0.743183,-0.234487,-0.401158,-0.272223,-0.000063,-0.236643
"2018-06-07 00:17:57.207 +0000",1528330677.206938,0.600888,-1.300169,0.227677,0.151145,0.963603,-0.220508,0.000000,0.000000,0.000000,-1,-0.678380,-0.273447,-0.491774,-0.312491,0.185155,-0.351895
"2018-06-07 00:17:57.217 +0000",1528330677.217012,0.592514,-1.308283,0.223109,0.144922,0.965741,-0.215273,0.000000,0.000000,0.000000,-1,-0.551621,-0.433060,-0.565672,-0.264872,0.499149,-0.389723
"2018-06-07 00:17:57.227 +0000",1528330677.227085,0.577555,-1.313771,0.211647,0.138790,0.967151,-0.212973,0.000000,0.000000,0.000000,-1,-0.203347,-0.324693,-0.522053,-0.145092,0.734464,-0.353617
"2018-06-07 00:17:57.237 +0000",1528330677.237158,0.568104,-1.316183,0.200221,0.135515,0.967761,-0.212308,0.000000,0.000000,0.000000,-1,-0.016578,0.354448,-0.307528,0.052305,0.783765,0.150922
"2018-06-07 00:17:57.247 +0000",1528330677.247232,0.574432,-1.316675,0.198092,0.136597,0.967885,-0.211046,0.000000,0.000000,0.000000,-1,-0.009084,0.944832,0.011488,0.219909,0.627849,0.766603
"2018-06-07 00:17:57.257 +0000",1528330677.257305,0.587352,-1.314110,0.202683,0.140688,0.967237,-0.211329,0.000000,0.000000,0.000000,-1,0.232539,0.751075,0.302946,0.136702,0.348987,0.547603
"2018-06-07 00:17:57.267 +0000",1528330677.267379,0.595064,-1.306815,0.206064,0.146265,0.965359,-0.216076,0.000000,0.000000,0.000000,-1,0.650239,0.362670,0.531048,-0.051401,0.166935,-0.182713
"2018-06-07 00:17:57.277 +0000",1528330677.277452,0.603777,-1.297191,0.210404,0.153410,0.962803,-0.222431,0.000000,0.000000,0.000000,-1,0.706921,0.539067,0.650828,0.028765,0.202953,-0.398891
"2018-06-07 00:17:57.288 +0000",1528330677.287525,0.618986,-1.289910,0.217598,0.160838,0.960810,-0.225776,0.000000,0.000000,0.000000,-1,0.387158,0.862512,0.534182,0.061604,0.482946,0.013679
"2018-06-07 00:17:57.298 +0000",1528330677.297599,0.631936,-1.285919,0.225548,0.166012,0.959696,-0.226766,0.000000,0.000000,0.000000,-1,0.156684,0.375108,0.379475,0.035893,0.941717,0.058309
"2018-06-07 00:17:57.308 +0000",1528330677.307673,0.638101,-1.281503,0.230308,0.169929,0.958446,-0.229140,0.000000,0.000000,0.000000,-1,0.341766,0.165962,0.376291,0.238014,1.140752,-0.259705
"2018-06-07 00:17:57.318 +0000",1528330677.317747,0.643554,-1.273945,0.229151,0.175518,0.956262,-0.233999,0.000000,0.000000,0.000000,-1,0.712439,0.868206,0.438797,0.562534,0.875647,-0.227595
"2018-06-07 00:17:57.328 +0000",1528330677.327820,0.653268,-1.263839,0.224732,0.183647,0.953258,-0.239945,0.000000,0.000000,0.000000,-1,0.909699,1.498518,0.524079,0.714195,0.503423,-0.027069
"2018-06-07 00:17:57.338 +0000",1528330677.337893,0.666515,-1.253201,0.223313,0.193069,0.949989,-0.245448,0.000000,0.000000,0.000000,-1,0.828045,1.371557,0.641142,0.651642,0.244957,0.080318
"2018-06-07 00:17:57.348 +0000",1528330677.347967,0.679797,-1.243614,0.227316,0.202028,0.946952,-0.249934,0.000000,0.000000,0.000000,-1,0.605473,0.780086,0.701243,0.414259,0.104943,0.094599
"2018-06-07 00:17:57.358 +0000",1528330677.358040,0.691593,-1.235903,0.236035,0.209613,0.944445,-0.253151,0.000000,0.000000,0.000000,-1,0.348654,0.238170,0.701330,0.176266,0.047056,0.177299
"2018-06-07 00:17:57.368 +0000",1528330677.368114,0.705071,-1.230709,0.249512,0.216183,0.942725,-0.254035,0.000000,0.000000,0.000000,-1,0.023594,0.046452,0.654189,0.044987,-0.038871,0.374061
"2018-06-07 00:17:57.378 +0000",1528330677.378187,0.723215,-1.228836,0.267976,0.221924,0.942099,-0.251394,0.000000,0.000000,0.000000,-1,-0.353863,0.096288,0.561617,-0.053955,-0.152289,0.504034
"2018-06-07 00:17:57.388 +0000",1528330677.388260,0.745684,-1.230194,0.290191,0.226648,0.942553,-0.245405,0.000000,0.000000,0.000000,-1,-0.670008,0.159689,0.416238,-0.143213,-0.239871,0.511808
"2018-06-07 00:17:57.398 +0000",1528330677.398334,0.768811,-1.234742,0.313870,0.229279,0.944063,-0.237014,0.000000,0.000000,0.000000,-1,-0.922404,0.034750,0.199172,-0.256088,-0.211122,0.411864
"2018-06-07 00:17:57.408 +0000",1528330677.408407,0.789503,-1.241946,0.337026,0.229299,0.946414,-0.227424,0.000000,0.000000,0.000000,-1,-1.057059,-0.160098,-0.022669,-0.331258,-0.052615,0.231788
"2018-06-07 00:17:57.418 +0000",1528330677.418481,0.807027,-1.249956,0.357341,0.227766,0.948971,-0.218121,0.000000,0.000000,0.000000,-1,-0.987885,-0.151725,-0.141124,-0.310789,0.152989,0.066037
"2018-06-07 00:17:57.429 +0000",1528330677.428554,0.823307,-1.256931,0.374348,0.226427,0.951147,-0.209879,0.000000,0.000000,0.000000,-1,-0.809578,0.074892,-0.136571,-0.165178,0.264810,0.008799
"2018-06-07 00:17:57.439 +0000",1528330677.438628,0.838710,-1.262183,0.388361,0.225914,0.952756,-0.203025,0.000000,0.000000,0.000000,-1,-0.620049,0.243148,-0.081658,-0.036751,0.235355,-0.003152
"2018-06-07 00:17:57.449 +0000",1528330677.448701,0.853201,-1.265935,0.399715,0.226138,0.953888,-0.197378,0.000000,0.000000,0.000000,-1,-0.466036,0.397133,-0.050369,-0.011142,0.113403,-0.006464
"2018-06-07 00:17:57.459 +0000",1528330677.458774,0.865216,-1.268949,0.407669,0.226304,0.954789,-0.192782,0.000000,0.000000,0.000000,-1,-0.343971,0.447021,-0.085999,-0.068634,0.010543,-0.011610
"2018-06-07 00:17:57.469 +0000",1528330677.468848,0.873612,-1.271663,0.411961,0.225927,0.955592,-0.189211,0.000000,0.000000,0.000000,-1,-0.246916,0.412375,-0.136878,-0.112066,-0.059321,-0.023161
"2018-06-07 00:17:57.479 +0000",1528330677.478921,0.878134,-1.274022,0.413066,0.225044,0.956285,-0.186747,0.000000,0.000000,0.000000,-1,-0.152081,0.312856,-0.164275,-0.122658,-0.119310,-0.026907
"2018-06-07 00:17:57.489 +0000",1528330677.488995,0.878273,-1.276033,0.411237,0.223590,0.956871,-0.185488,0.000000,0.000000,0.000000,-1,-0.063458,0.145273,-0.195084,-0.114307,-0.165336,-0.070311
"2018-06-07 00:17:57.499 +0000",1528330677.499068,0.873814,-1.277530,0.406375,0.221662,0.957305,-0.185563,0.000000,0.000000,0.000000,-1,0.038654,-0.021266,-0.204407,-0.104963,-0.193465,-0.118773
"2018-06-07 00:17:57.509 +0000",1528330677.509141,0.865474,-1.278411,0.398937,0.219465,0.957559,-0.186859,0.000000,0.000000,0.000000,-1,0.127004,-0.145066,-0.204970,-0.077711,-0.213464,-0.138047
"2018-06-07 00:17:57.519 +0000",1528330677.519215,0.854621,-1.278829,0.389227,0.217121,0.957680,-0.188966,0.000000,0.000000,0.000000,-1,0.202717,-0.150298,-0.215915,-0.050984,-0.213051,-0.121917
"2018-06-07 00:17:57.529 +0000",1528330677.529288,0.841935,-1.278756,0.377253,0.214759,0.957658,-0.191752,0.000000,0.000000,0.000000,-1,0.278358,-0.114932,-0.222439,-0.030754,-0.203783,-0.089376
"2018-06-07 00:17:57.539 +0000",1528330677.539362,0.827516,-1.278327,0.363681,0.212275,0.957535,-0.195106,0.000000,0.000000,0.000000,-1,0.325738,-0.156474,-0.232349,-0.011408,-0.197464,-0.073692
"2018-06-07 00:17:57.549 +0000",1528330677.549435,0.810809,-1.277531,0.348540,0.209538,0.957305,-0.199151,0.000000,0.000000,0.000000,-1,0.388902,-0.242990,-0.240275,0.018077,-0.187026,-0.088203
"2018-06-07 00:17:57.560 +0000",1528330677.559508,0.791087,-1.276198,0.331211,0.206477,0.956919,-0.204141,0.000000,0.000000,0.000000,-1,0.469983,-0.333814,-0.255784,0.039937,-0.170695,-0.135596
"2018-06-07 00:17:57.570 +0000",1528330677.569582,0.768634,-1.274311,0.311745,0.203097,0.956369,-0.210023,0.000000,0.000000,0.000000,-1,0.547891,-0.393906,-0.272272,0.064893,-0.149332,-0.156264
"2018-06-07 00:17:57.580 +0000",1528330677.579655,0.744110,-1.271850,0.290611,0.199479,0.955647,-0.216670,0.000000,0.000000,0.000000,-1,0.616272,-0.437590,-0.281161,0.102005,-0.134328,-0.128087
"2018-06-07 00:17:57.590 +0000",1528330677.589729,0.718532,-1.268925,0.268604,0.195711,0.954782,-0.223805,0.000000,0.000000,0.000000,-1,0.657333,-0.460487,-0.291002,0.142194,-0.138482,-0.074169
"2018-06-07 00:17:57.600 +0000",1528330677.599802,0.691809,-1.265671,0.245809,0.191642,0.953809,-0.231345,0.000000,0.000000,0.000000,-1,0.692201,-0.503113,-0.312719,0.158913,-0.151823,-0.032876
"2018-06-07 00:17:57.610 +0000",1528330677.609875,0.664491,-1.262301,0.222571,0.187233,0.952792,-0.239023,0.000000,0.000000,0.000000,-1,0.696638,-0.516152,-0.341810,0.139290,-0.165392,-0.014411
"2018-06-07 00:17:57.620 +0000",1528330677.619949,0.637112,-1.259000,0.199327,0.182489,0.951784,-0.246586,0.000000,0.000000,0.000000,-1,0.684247,-0.522660,-0.368691,0.112448,-0.174211,0.032947
"2018-06-07 00:17:57.630 +0000",1528330677.630022,0.610269,-1.255713,0.176603,0.177598,0.950770,-0.253958,0.000000,0.000000,0.000000,-1,0.667478,-0.518293,-0.374018,0.089599,-0.187770,0.077078
"2018-06-07 00:17:57.640 +0000",1528330677.640096,0.584560,-1.252280,0.155067,0.172811,0.949701,-0.261159,0.000000,0.000000,0.000000,-1,0.650503,-0.522826,-0.351404,0.077983,-0.205469,0.107839
"2018-06-07 00:17:57.650 +0000",1528330677.650169,0.560679,-1.248916,0.135090,0.168223,0.948642,-0.267916,0.000000,0.000000,0.000000,-1,0.607313,-0.470295,-0.341472,0.071523,-0.212085,0.123339
"2018-06-07 00:17:57.660 +0000",1528330677.660242,0.539254,-1.245943,0.116867,0.163893,0.947698,-0.273877,0.000000,0.000000,0.000000,-1,0.531549,-0.394797,-0.332473,0.060946,-0.214803,0.130216
"2018-06-07 00:17:57.670 +0000",1528330677.670316,0.520197,-1.243499,0.100742,0.159794,0.946915,-0.278959,0.000000,0.000000,0.000000,-1,0.450510,-0.373145,-0.313939,0.059566,-0.212860,0.103361
"2018-06-07 00:17:57.680 +0000",1528330677.680389,0.502403,-1.241160,0.086201,0.155872,0.946160,-0.283699,0.000000,0.000000,0.000000,-1,0.429320,-0.413942,-0.284966,0.062710,-0.174370,0.059700
"2018-06-07 00:17:57.690 +0000",1528330677.690463,0.484846,-1.238453,0.072291,0.152060,0.945280,-0.288656,0.000000,0.000000,0.000000,-1,0.457531,-0.440304,-0.262519,0.061685,-0.124968,0.068594
"2018-06-07 00:17:57.701 +0000",1528330677.700536,0.468056,-1.235413,0.058981,0.148488,0.944284,-0.293733,0.000000,0.000000,0.000000,-1,0.465729,-0.407443,-0.239854,0.042857,-0.100870,0.108460
"2018-06-07 00:17:57.711 +0000",1528330677.710609,0.452656,-1.232287,0.046544,0.145237,0.943251,-0.298637,0.000000,0.000000,0.000000,-1,0.459253,-0.348246,-0.224608,0.026638,-0.096174,0.113075
"2018-06-07 00:17:57.721 +0000",1528330677.720683,0.438201,-1.228986,0.034276,0.142226,0.942149,-0.303523,0.000000,0.000000,0.000000,-1,0.478116,-0.260350,-0.229774,0.011231,-0.102443,0.101115
"2018-06-07 00:17:57.731 +0000",1528330677.730756,0.424740,-1.225390,0.021666,0.139523,0.940938,-0.308495,0.000000,0.000000,0.000000,-1,0.505339,-0.120832,-0.235884,0.010913,-0.110600,0.113152
"2018-06-07 00:17:57.741 +0000",1528330677.740830,0.412585,-1.221814,0.009404,0.137111,0.939721,-0.313249,0.000000,0.000000,0.000000,-1,0.483207,-0.052837,-0.234560,0.017567,-0.111779,0.110337
"2018-06-07 00:17:57.751 +0000",1528330677.750903,0.400694,-1.218653,-0.002342,0.134535,0.938636,-0.317590,0.000000,0.000000,0.000000,-1,0.436097,-0.102309,-0.248579,0.003908,-0.109824,0.083337
"2018-06-07 00:17:57.761 +0000",1528330677.760976,0.388102,-1.215728,-0.014437,0.131564,0.937623,-0.321799,0.000000,0.000000,0.000000,-1,0.430053,-0.121955,-0.279816,-0.012118,-0.112550,0.084738
"2018-06-07 00:17:57.771 +0000",1528330677.771050,0.375015,-1.212817,-0.027204,0.128340,0.936607,-0.326031,0.000000,0.000000,0.000000,-1,0.433429,-0.106446,-0.310973,-0.000136,-0.115409,0.078030
"2018-06-07 00:17:57.781 +0000",1528330677.781123,0.361304,-1.209743,-0.040844,0.124875,0.935525,-0.330452,0.000000,0.000000,0.000000,-1,0.469358,-0.091949,-0.341131,0.037097,-0.112970,0.031075
"2018-06-07 00:17:57.791 +0000",1528330677.791197,0.346258,-1.205842,-0.055779,0.121127,0.934140,-0.335724,0.000000,0.000000,0.000000,-1,0.574584,-0.117912,-0.362960,0.078610,-0.109113,0.037491
"2018-06-07 00:17:57.801 +0000",1528330677.801270,0.330447,-1.200709,-0.071154,0.117358,0.932296,-0.342128,0.000000,0.000000,0.000000,-1,0.694165,-0.149517,-0.338586,0.125363,-0.105330,0.079585
"2018-06-07 00:17:57.811 +0000",1528330677.811343,0.316379,-1.193783,-0.085353,0.114540,0.929768,-0.349874,0.000000,0.000000,0.000000,-1,0.863453,-0.045176,-0.238635,0.183830,-0.077855,0.023717
"2018-06-07 00:17:57.821 +0000",1528330677.821417,0.307582,-1.183718,-0.096264,0.114285,0.926016,-0.359769,0.000000,0.000000,0.000000,-1,1.155613,0.190724,-0.015960,0.258487,0.003305,-0.099933
"2018-06-07 00:17:57.831 +0000",1528330677.831490,0.305462,-1.169248,-0.101785,0.117540,0.920457,-0.372751,0.000000,0.000000,0.000000,-1,1.525743,0.313273,0.325604,0.343901,0.141707,-0.236411
"2018-06-07 00:17:57.842 +0000",1528330677.841564,0.310758,-1.149885,-0.099771,0.124939,0.912717,-0.389021,0.000000,0.000000,0.000000,-1,1.900368,0.355243,0.775564,0.400421,0.309466,-0.350938
"2018-06-07 00:17:57.852 +0000",1528330677.851637,0.323059,-1.125470,-0.090271,0.136751,0.902470,-0.408469,0.000000,0.000000,0.000000,-1,2.272750,0.366375,1.248027,0.427352,0.491878,-0.444070
"2018-06-07 00:17:57.862 +0000",1528330677.861710,0.338836,-1.096333,-0.075604,0.151856,0.889538,-0.430884,0.000000,0.000000,0.000000,-1,2.600719,0.205355,1.643721,0.414718,0.694583,-0.533913
"2018-06-07 00:17:57.872 +0000",1528330677.871784,0.352675,-1.063833,-0.058361,0.167705,0.874223,-0.455642,0.000000,0.000000,0.000000,-1,2.806072,-0.273803,1.906465,0.367650,0.898589,-0.609696
"2018-06-07 00:17:57.882 +0000",1528330677.881857,0.359014,-1.029771,-0.042279,0.180951,0.857181,-0.482179,0.000000,0.000000,0.000000,-1,2.904322,-0.917944,1.911896,0.279559,1.080227,-0.543059
"2018-06-07 00:17:57.892 +0000",1528330677.891931,0.357512,-0.996732,-0.029397,0.190037,0.839701,-0.508712,0.000000,0.000000,0.000000,-1,2.791549,-1.298447,1.735717,0.120540,1.144369,-0.237137
"2018-06-07 00:17:57.902 +0000",1528330677.902004,0.353470,-0.966756,-0.018020,0.196607,0.823048,-0.532859,0.000000,0.000000,0.000000,-1,2.490156,-1.326141,1.595417,-0.034955,1.051311,0.087607
"2018-06-07 00:17:57.912 +0000",1528330677.912077,0.352247,-0.940360,-0.005846,0.203381,0.807770,-0.553302,0.000000,0.000000,0.000000,-1,2.116217,-1.005379,1.558484,-0.182614,0.920699,0.153918
"2018-06-07 00:17:57.922 +0000",1528330677.922151,0.356103,-0.918036,0.007937,0.211748,0.794410,-0.569276,0.000000,0.000000,0.000000,-1,1.697111,-0.641907,1.516399,-0.386339,0.830514,0.140840
"2018-06-07 00:17:57.932 +0000",1528330677.932224,0.358881,-0.899008,0.019908,0.218599,0.782710,-0.582735,0.000000,0.000000,0.000000,-1,1.467965,-0.690919,1.271534,-0.607286,0.693349,0.053545
"2018-06-07 00:17:57.942 +0000",1528330677.942298,0.356601,-0.882194,0.027751,0.221833,0.772135,-0.595481,0.000000,0.000000,0.000000,-1,1.372765,-0.875448,0.971111,-0.697190,0.443960,-0.011255
"2018-06-07 00:17:57.952 +0000",1528330677.952371,0.351923,-0.866808,0.032766,0.223114,0.762267,-0.607593,0.000000,0.000000,0.000000,-1,1.298417,-0.812354,0.797210,-0.556290,0.219407,0.042178
"2018-06-07 00:17:57.962 +0000",1528330677.962444,0.350475,-0.852836,0.037556,0.225869,0.753149,-0.617859,0.000000,0.000000,0.000000,-1,1.155398,-0.372412,0.765472,-0.250481,0.129313,0.204834
"2018-06-07 00:17:57.973 +0000",1528330677.972518,0.355745,-0.840470,0.043533,0.232348,0.744957,-0.625343,0.000000,0.000000,0.000000,-1,0.971755,0.229583,0.806367,-0.002108,0.141319,0.330146
"2018-06-07 00:17:57.983 +0000",1528330677.982591,0.366958,-0.829528,0.050774,0.242255,0.737613,-0.630269,0.000000,0.000000,0.000000,-1,0.799876,0.665876,0.840299,0.099588,0.161236,0.343221
"2018-06-07 00:17:57.993 +0000",1528330677.992665,0.381106,-0.820386,0.058749,0.253645,0.731409,-0.633012,0.000000,0.000000,0.000000,-1,0.600218,0.861872,0.828419,0.020372,0.140325,0.311158
"2018-06-07 00:17:58.003 +0000",1528330678.002738,0.395806,-0.812445,0.067095,0.265154,0.725971,-0.634554,0.000000,0.000000,0.000000,-1,0.498389,0.838553,0.824282,-0.096849,0.075238,0.279788
"2018-06-07 00:17:58.013 +0000",1528330678.012811,0.408987,-0.804790,0.075507,0.275697,0.720685,-0.636085,0.000000,0.000000,0.000000,-1,0.461737,0.648498,0.833494,-0.163621,-0.001126,0.206168
"2018-06-07 00:17:58.023 +0000",1528330678.022885,0.420212,-0.797664,0.084841,0.284907,0.715727,-0.637623,0.000000,0.000000,0.000000,-1,0.355446,0.383389,0.893202,-0.208689,-0.068769,0.165455
"2018-06-07 00:17:58.033 +0000",1528330678.032958,0.430418,-0.791704,0.096018,0.293174,0.711552,-0.638547,0.000000,0.000000,0.000000,-1,0.168078,0.170666,0.972610,-0.262702,-0.132694,0.164548
"2018-06-07 00:17:58.043 +0000",1528330678.043032,0.440424,-0.787149,0.108695,0.300927,0.708344,-0.638507,0.000000,0.000000,0.000000,-1,-0.006332,0.095465,0.988925,-0.313928,-0.184479,0.185626
"2018-06-07 00:17:58.053 +0000",1528330678.053105,0.450716,-0.784145,0.120980,0.308408,0.706220,-0.637289,0.000000,0.000000,0.000000,-1,-0.130492,0.183439,0.870069,-0.398160,-0.204801,0.232061
"2018-06-07 00:17:58.063 +0000",1528330678.063178,0.460575,-0.782814,0.131355,0.315094,0.705277,-0.635059,0.000000,0.000000,0.000000,-1,-0.224491,0.270810,0.653258,-0.462311,-0.229477,0.271182
"2018-06-07 00:17:58.073 +0000",1528330678.073252,0.468759,-0.783173,0.138884,0.320166,0.705531,-0.632233,0.000000,0.000000,0.000000,-1,-0.280274,0.283819,0.393118,-0.488334,-0.256923,0.284561
"2018-06-07 00:17:58.083 +0000",1528330678.083325,0.474919,-0.784980,0.143683,0.323471,0.706811,-0.629114,0.000000,0.000000,0.000000,-1,-0.324722,0.275873,0.164084,-0.434494,-0.284585,0.295191
"2018-06-07 00:17:58.093 +0000",1528330678.093399,0.479820,-0.788263,0.146291,0.325477,0.709130,-0.625459,0.000000,0.000000,0.000000,-1,-0.389391,0.318250,-0.036790,-0.335975,-0.315438,0.338380
"2018-06-07 00:17:58.103 +0000",1528330678.103472,0.484140,-0.792968,0.147131,0.326620,0.712439,-0.621087,0.000000,0.000000,0.000000,-1,-0.457484,0.386828,-0.205311,-0.258841,-0.347067,0.382302
"2018-06-07 00:17:58.114 +0000",1528330678.113545,0.487925,-0.799023,0.146359,0.326940,0.716675,-0.616024,0.000000,0.000000,0.000000,-1,-0.523497,0.443319,-0.369569,-0.222158,-0.383408,0.397137
"2018-06-07 00:17:58.124 +0000",1528330678.123619,0.490944,-0.806444,0.143965,0.326282,0.721831,-0.610328,0.000000,0.000000,0.000000,-1,-0.587395,0.475660,-0.532827,-0.241504,-0.410628,0.395621
"2018-06-07 00:17:58.134 +0000",1528330678.133692,0.492613,-0.815226,0.139790,0.324289,0.727881,-0.604173,0.000000,0.000000,0.000000,-1,-0.651163,0.458648,-0.706985,-0.288508,-0.442450,0.375581
"2018-06-07 00:17:58.144 +0000",1528330678.143766,0.492695,-0.825487,0.133905,0.320789,0.734878,-0.597534,0.000000,0.000000,0.000000,-1,-0.730728,0.426191,-0.873622,-0.326954,-0.468872,0.367188
"2018-06-07 00:17:58.154 +0000",1528330678.153839,0.491301,-0.837333,0.126579,0.315827,0.742860,-0.590264,0.000000,0.000000,0.000000,-1,-0.831430,0.391408,-1.023007,-0.337311,-0.490511,0.358345
"2018-06-07 00:17:58.164 +0000",1528330678.163912,0.489213,-0.850865,0.118450,0.309841,0.751851,-0.581995,0.000000,0.000000,0.000000,-1,-0.967161,0.402458,-1.130229,-0.322765,-0.507451,0.353464
"2018-06-07 00:17:58.174 +0000",1528330678.173986,0.487537,-0.866098,0.110155,0.303464,0.761807,-0.572328,0.000000,0.000000,0.000000,-1,-1.123195,0.481358,-1.200635,-0.290494,-0.497815,0.346803
"2018-06-07 00:17:58.184 +0000",1528330678.184059,0.487026,-0.883014,0.102206,0.297098,0.772655,-0.561013,0.000000,0.000000,0.000000,-1,-1.285763,0.577688,-1.243008,-0.251566,-0.464733,0.337182
"2018-06-07 00:17:58.194 +0000",1528330678.194133,0.487741,-0.901446,0.095005,0.290775,0.784225,-0.548125,0.000000,0.000000,0.000000,-1,-1.448516,0.643162,-1.257504,-0.198291,-0.413085,0.332930
"2018-06-07 00:17:58.204 +0000",1528330678.204206,0.489786,-0.921420,0.088943,0.284468,0.796461,-0.533598,0.000000,0.000000,0.000000,-1,-1.620819,0.689885,-1.256973,-0.137877,-0.357984,0.341917
"2018-06-07 00:17:58.214 +0000",1528330678.214279,0.493482,-0.942954,0.084316,0.278248,0.809297,-0.517316,0.000000,0.000000,0.000000,-1,-1.802644,0.747528,-1.248860,-0.088108,-0.306932,0.364682
"2018-06-07 00:17:58.224 +0000",1528330678.224353,0.498780,-0.966454,0.081530,0.271811,0.822876,-0.498992,0.000000,0.000000,0.000000,-1,-2.041037,0.743588,-1.252628,-0.058112,-0.269180,0.401092
"2018-06-07 00:17:58.234 +0000",1528330678.234426,0.505219,-0.992620,0.080999,0.264504,0.837461,-0.478222,0.000000,0.000000,0.000000,-1,-2.340043,0.660566,-1.286605,-0.049675,-0.263379,0.422863
"2018-06-07 00:17:58.245 +0000",1528330678.244500,0.512856,-1.021888,0.082898,0.256009,0.853095,-0.454629,0.000000,0.000000,0.000000,-1,-2.666198,0.583048,-1.342017,-0.015728,-0.289557,0.393289
"2018-06-07 00:17:58.255 +0000",1528330678.254573,0.522649,-1.053724,0.087316,0.246761,0.869270,-0.428342,0.000000,0.000000,0.000000,-1,-2.909632,0.607766,-1.376884,0.047291,-0.309746,0.325879
"2018-06-07 00:17:58.265 +0000",1528330678.264646,0.535554,-1.086935,0.094323,0.237400,0.885205,-0.400065,0.000000,0.000000,0.000000,-1,-3.045222,0.688613,-1.374187,0.093533,-0.297315,0.274256
"2018-06-07 00:17:58.275 +0000",1528330678.274720,0.550999,-1.121011,0.104221,0.227620,0.900540,-0.370426,0.000000,0.000000,0.000000,-1,-3.146049,0.621337,-1.366622,0.082149,-0.256741,0.243824
"2018-06-07 00:17:58.285 +0000",1528330678.284793,0.567389,-1.155349,0.117846,0.216906,0.914936,-0.340357,0.000000,0.000000,0.000000,-1,-3.199744,0.309189,-1.311474,0.062024,-0.194965,0.160883
"2018-06-07 00:17:58.295 +0000",1528330678.294867,0.584062,-1.189182,0.136407,0.205358,0.928064,-0.310682,0.000000,0.000000,0.000000,-1,-3.200179,-0.169924,-1.195621,0.087794,-0.104197,-0.002505
"2018-06-07 00:17:58.305 +0000",1528330678.304940,0.601586,-1.220798,0.160502,0.194061,0.939373,-0.282695,0.000000,0.000000,0.000000,-1,-3.020746,-0.581971,-0.985328,0.168884,0.023029,-0.215977
"2018-06-07 00:17:58.315 +0000",1528330678.315012,0.621258,-1.246825,0.188414,0.185288,0.947979,-0.258850,0.000000,0.000000,0.000000,-1,-2.474013,-0.657650,-0.638291,0.284256,0.188114,-0.486816
"2018-06-07 00:17:58.325 +0000",1528330678.325087,0.639595,-1.263625,0.214000,0.180471,0.953193,-0.242596,0.000000,0.000000,0.000000,-1,-1.581082,-0.575529,-0.257168,0.352473,0.387460,-0.862598
"2018-06-07 00:17:58.335 +0000",1528330678.335160,0.652422,-1.272922,0.233520,0.178180,0.955963,-0.233209,0.000000,0.000000,0.000000,-1,-0.964992,-0.585622,-0.059614,0.206189,0.548493,-1.028296
"2018-06-07 00:17:58.345 +0000",1528330678.345233,0.661703,-1.279773,0.249315,0.176308,0.957951,-0.226373,0.000000,0.000000,0.000000,-1,-0.784334,-0.557661,-0.063173,-0.108482,0.569546,-0.839896
"2018-06-07 00:17:58.355 +0000",1528330678.355307,0.669564,-1.285644,0.261512,0.174588,0.959619,-0.220566,0.000000,0.000000,0.000000,-1,-0.622559,-0.314465,-0.096181,-0.380979,0.397452,-0.648879
"2018-06-07 00:17:58.365 +0000",1528330678.365380,0.674089,-1.289627,0.267847,0.173198,0.960732,-0.216787,0.000000,0.000000,0.000000,-1,-0.342188,-0.102842,-0.113418,-0.461131,0.178261,-0.512599
"2018-06-07 00:17:58.375 +0000",1528330678.375453,0.671951,-1.291585,0.266238,0.171562,0.961273,-0.215683,0.000000,0.000000,0.000000,-1,-0.057089,-0.067750,-0.177432,-0.497932,0.055756,-0.425232
"2018-06-07 00:17:58.386 +0000",1528330678.385527,0.657659,-1.292958,0.254660,0.167655,0.961651,-0.217068,0.000000,0.000000,0.000000,-1,0.129808,-0.445046,-0.396237,-0.577277,0.202885,-0.348468
"2018-06-07 00:17:58.396 +0000",1528330678.395601,0.620948,-1.293560,0.228240,0.159239,0.961815,-0.222605,0.000000,0.000000,0.000000,-1,0.503698,-1.382481,-0.687018,-0.607832,0.471412,-0.444127
"2018-06-07 00:17:58.406 +0000",1528330678.405674,0.556362,-1.289758,0.181561,0.146470,0.960768,-0.235522,0.000000,0.000000,0.000000,-1,1.193900,-2.078986,-0.891770,-0.525864,0.556276,-0.562878
"2018-06-07 00:17:58.416 +0000",1528330678.415747,0.488848,-1.281995,0.130520,0.133745,0.958586,-0.251444,0.000000,0.000000,0.000000,-1,1.362984,-1.654042,-0.804870,-0.202059,0.485796,0.119181
"2018-06-07 00:17:58.426 +0000",1528330678.425821,0.454739,-1.276540,0.102389,0.127388,0.957018,-0.260553,0.000000,0.000000,0.000000,-1,0.618678,-0.368221,-0.329368,0.187218,0.386503,0.931116
"2018-06-07 00:17:58.436 +0000",1528330678.435894,0.462012,-1.275609,0.104923,0.129677,0.956748,-0.260418,0.000000,0.000000,0.000000,-1,-0.084104,0.706568,0.235779,0.314995,0.198602,0.983501
"2018-06-07 00:17:58.446 +0000",1528330678.445968,0.488255,-1.275394,0.121765,0.136562,0.956685,-0.257107,0.000000,0.000000,0.000000,-1,-0.224917,1.049872,0.475893,0.185871,0.158717,0.372387
"2018-06-07 00:17:58.456 +0000",1528330678.456041,0.517772,-1.276264,0.142752,0.143679,0.956938,-0.252241,0.000000,0.000000,0.000000,-1,-0.426526,0.861525,0.491942,0.255903,0.524217,0.139158
"2018-06-07 00:17:58.466 +0000",1528330678.466114,0.549159,-1.278379,0.169473,0.150467,0.957550,-0.245881,0.000000,0.000000,0.000000,-1,-0.601228,0.499497,0.581643,0.364929,0.861649,0.178880
"2018-06-07 00:17:58.476 +0000",1528330678.476188,0.583028,-1.279406,0.198452,0.158165,0.957845,-0.239824,0.000000,0.000000,0.000000,-1,-0.478063,0.712495,0.656200,0.451225,1.014964,-0.064864
"2018-06-07 00:17:58.486 +0000",1528330678.486260,0.618418,-1.277982,0.220674,0.167342,0.957435,-0.235188,0.000000,0.000000,0.000000,-1,-0.157986,1.666593,0.574342,0.642167,0.907463,-0.197658
"2018-06-07 00:17:58.496 +0000",1528330678.496335,0.653940,-1.274569,0.233843,0.177576,0.956444,-0.231689,0.000000,0.000000,0.000000,-1,0.095029,2.403121,0.498459,0.735052,0.527076,0.050079
"2018-06-07 00:17:58.506 +0000",1528330678.506408,0.689688,-1.270308,0.246934,0.188335,0.955192,-0.228337,0.000000,0.000000,0.000000,-1,0.069271,2.211638,0.593693,0.776768,0.169228,0.179066
"2018-06-07 00:17:58.516 +0000",1528330678.516480,0.726038,-1.266123,0.267247,0.199161,0.953945,-0.224329,0.000000,0.000000,0.000000,-1,-0.126769,1.477032,0.772714,0.752393,0.101017,0.019663
"2018-06-07 00:17:58.527 +0000",1528330678.526555,0.758976,-1.261926,0.293958,0.209194,0.952677,-0.220551,0.000000,0.000000,0.000000,-1,-0.259075,0.491475,0.889546,0.556645,0.254247,-0.167861
"2018-06-07 00:17:58.537 +0000",1528330678.536628,0.784160,-1.257139,0.321398,0.217899,0.951212,-0.218439,0.000000,0.000000,0.000000,-1,-0.224123,-0.240862,0.942194,0.215481,0.374640,-0.104055
"2018-06-07 00:17:58.547 +0000",1528330678.546701,0.805865,-1.251731,0.347419,0.226297,0.949529,-0.217218,0.000000,0.000000,0.000000,-1,-0.180033,-0.267113,0.948470,-0.003335,0.279444,0.119364
"2018-06-07 00:17:58.557 +0000",1528330678.556775,0.828545,-1.246703,0.372067,0.234680,0.947940,-0.215255,0.000000,0.000000,0.000000,-1,-0.243736,-0.007881,0.868697,-0.199554,0.097180,0.321074
"2018-06-07 00:17:58.567 +0000",1528330678.566848,0.851792,-1.243013,0.395592,0.242250,0.946758,-0.212044,0.000000,0.000000,0.000000,-1,-0.332127,0.114273,0.738026,-0.392046,-0.009091,0.328102
"2018-06-07 00:17:58.577 +0000",1528330678.576921,0.871578,-1.240951,0.416158,0.247892,0.946092,-0.208466,0.000000,0.000000,0.000000,-1,-0.375495,-0.018865,0.520458,-0.542768,0.008696,0.207596
"2018-06-07 00:17:58.587 +0000",1528330678.586995,0.885051,-1.241454,0.431611,0.250309,0.946255,-0.204805,0.000000,0.000000,0.000000,-1,-0.421321,-0.124173,0.209395,-0.647206,0.113223,0.118501
"2018-06-07 00:17:58.597 +0000",1528330678.597069,0.895271,-1.244468,0.443510,0.250162,0.947226,-0.200452,0.000000,0.000000,0.000000,-1,-0.502351,-0.089288,-0.048473,-0.608073,0.160181,0.166486
"2018-06-07 00:17:58.607 +0000",1528330678.607141,0.905013,-1.248789,0.453747,0.248883,0.948602,-0.195476,0.000000,0.000000,0.000000,-1,-0.517418,0.043945,-0.154540,-0.387173,0.091208,0.231334
"2018-06-07 00:17:58.617 +0000",1528330678.617215,0.914419,-1.253640,0.462056,0.247062,0.950126,-0.190316,0.000000,0.000000,0.000000,-1,-0.491637,0.186015,-0.246691,-0.216453,-0.023582,0.267693
"2018-06-07 00:17:58.627 +0000",1528330678.627289,0.922037,-1.259266,0.467843,0.244241,0.951866,-0.185196,0.000000,0.000000,0.000000,-1,-0.473051,0.208432,-0.344552,-0.188577,-0.092262,0.232101
"2018-06-07 00:17:58.637 +0000",1528330678.637362,0.928524,-1.265147,0.472539,0.240951,0.953652,-0.180251,0.000000,0.000000,0.000000,-1,-0.459024,0.199887,-0.391937,-0.162918,-0.139809,0.168517
"2018-06-07 00:17:58.647 +0000",1528330678.647436,0.933724,-1.271396,0.476089,0.237090,0.955514,-0.175447,0.000000,0.000000,0.000000,-1,-0.457502,0.165002,-0.449051,-0.136321,-0.153176,0.103502
"2018-06-07 00:17:58.658 +0000",1528330678.657509,0.938043,-1.278054,0.479450,0.232710,0.957456,-0.170656,0.000000,0.000000,0.000000,-1,-0.472955,0.091535,-0.479348,-0.105925,-0.154920,0.060121
"2018-06-07 00:17:58.668 +0000",1528330678.667582,0.940890,-1.284775,0.482246,0.227990,0.959374,-0.166198,0.000000,0.000000,0.000000,-1,-0.441366,-0.006087,-0.477553,-0.040231,-0.155434,-0.007203
"2018-06-07 00:17:58.678 +0000",1528330678.677656,0.941031,-1.290897,0.483060,0.223262,0.961083,-0.162704,0.000000,0.000000,0.000000,-1,-0.348873,-0.078285,-0.476899,0.029057,-0.152245,-0.074967
"2018-06-07 00:17:58.688 +0000",1528330678.687728,0.937314,-1.296012,0.480300,0.218691,0.962484,-0.160621,0.000000,0.000000,0.000000,-1,-0.197843,-0.115327,-0.444008,0.085371,-0.152791,-0.124841
"2018-06-07 00:17:58.698 +0000",1528330678.697803,0.928731,-1.299698,0.472954,0.214462,0.963477,-0.160366,0.000000,0.000000,0.000000,-1,-0.012230,-0.163300,-0.399395,0.118333,-0.158515,-0.190922
"2018-06-07 00:17:58.708 +0000",1528330678.707876,0.914089,-1.301926,0.459958,0.210391,0.964072,-0.162178,0.000000,0.000000,0.000000,-1,0.201823,-0.227624,-0.363501,0.112852,-0.153326,-0.256478
"2018-06-07 00:17:58.718 +0000",1528330678.717948,0.892994,-1.302143,0.440957,0.206760,0.964129,-0.166448,0.000000,0.000000,0.000000,-1,0.439927,-0.290842,-0.313674,0.106046,-0.151385,-0.295679
"2018-06-07 00:17:58.728 +0000",1528330678.728023,0.866212,-1.300192,0.416341,0.203661,0.963610,-0.173144,0.000000,0.000000,0.000000,-1,0.684153,-0.305813,-0.246512,0.125181,-0.162004,-0.331358
"2018-06-07 00:17:58.738 +0000",1528330678.738096,0.836184,-1.296054,0.388491,0.201328,0.962495,-0.181852,0.000000,0.000000,0.000000,-1,0.871499,-0.324326,-0.157716,0.148495,-0.193239,-0.324252
"2018-06-07 00:17:58.748 +0000",1528330678.748169,0.805717,-1.290288,0.360242,0.199695,0.960915,-0.191741,0.000000,0.000000,0.000000,-1,0.982237,-0.327639,-0.079457,0.137509,-0.232765,-0.286485
"2018-06-07 00:17:58.758 +0000",1528330678.758243,0.775385,-1.283478,0.332458,0.198365,0.959007,-0.202377,0.000000,0.000000,0.000000,-1,1.033641,-0.381349,-0.064672,0.107864,-0.271583,-0.187317
"2018-06-07 00:17:58.768 +0000",1528330678.768316,0.744388,-1.276621,0.305173,0.196447,0.957042,-0.213259,0.000000,0.000000,0.000000,-1,1.021510,-0.520613,-0.109151,0.064707,-0.313624,-0.098463
"2018-06-07 00:17:58.778 +0000",1528330678.778389,0.712286,-1.270252,0.278162,0.193482,0.955175,-0.224064,0.000000,0.000000,0.000000,-1,0.988611,-0.649921,-0.185822,0.040298,-0.349523,-0.033108
"2018-06-07 00:17:58.788 +0000",1528330678.788463,0.679459,-1.264329,0.250756,0.189575,0.953405,-0.234690,0.000000,0.000000,0.000000,-1,0.976561,-0.659537,-0.256815,0.053665,-0.350912,0.025980
"2018-06-07 00:17:58.799 +0000",1528330678.798537,0.647688,-1.258804,0.223616,0.185200,0.951724,-0.244791,0.000000,0.000000,0.000000,-1,0.918148,-0.550743,-0.323055,0.080700,-0.322512,0.065302
"2018-06-07 00:17:58.809 +0000",1528330678.808609,0.619186,-1.254221,0.198364,0.180678,0.950307,-0.253519,0.000000,0.000000,0.000000,-1,0.790164,-0.417015,-0.360021,0.082780,-0.282125,0.082162
"2018-06-07 00:17:58.819 +0000",1528330678.818683,0.594682,-1.250679,0.176332,0.176297,0.949198,-0.260656,0.000000,0.000000,0.000000,-1,0.644098,-0.339478,-0.360536,0.077518,-0.246653,0.090414
"2018-06-07 00:17:58.829 +0000",1528330678.828757,0.573073,-1.248114,0.156857,0.171943,0.948388,-0.266449,0.000000,0.000000,0.000000,-1,0.533809,-0.303541,-0.364482,0.072701,-0.212472,0.125931
"2018-06-07 00:17:58.839 +0000",1528330678.838830,0.553080,-1.246150,0.138633,0.167560,0.947764,-0.271418,0.000000,0.000000,0.000000,-1,0.453073,-0.253166,-0.388890,0.075940,-0.178248,0.151438
"2018-06-07 00:17:58.849 +0000",1528330678.848904,0.534366,-1.244680,0.120810,0.163161,0.947294,-0.275705,0.000000,0.000000,0.000000,-1,0.408010,-0.154385,-0.414315,0.093476,-0.141126,0.141275
"2018-06-07 00:17:58.859 +0000",1528330678.858977,0.516788,-1.243332,0.103121,0.158920,0.946861,-0.279640,0.000000,0.000000,0.000000,-1,0.398532,-0.061066,-0.422627,0.110855,-0.114906,0.128242
"2018-06-07 00:17:58.869 +0000",1528330678.869050,0.499573,-1.241869,0.085372,0.154747,0.946389,-0.283550,0.000000,0.000000,0.000000,-1,0.424756,-0.042340,-0.420481,0.118935,-0.109826,0.115230
"2018-06-07 00:17:58.879 +0000",1528330678.879124,0.481601,-1.239615,0.067397,0.150614,0.945659,-0.288175,0.000000,0.000000,0.000000,-1,0.485566,-0.123508,-0.396117,0.131338,-0.124476,0.077696
"2018-06-07 00:17:58.889 +0000",1528330678.889197,0.462602,-1.236583,0.049800,0.146391,0.944669,-0.293549,0.000000,0.000000,0.000000,-1,0.539017,-0.276092,-0.362262,0.142122,-0.149808,0.057282
"2018-06-07 00:17:58.899 +0000",1528330678.899271,0.443306,-1.233048,0.033481,0.142132,0.943503,-0.299334,0.000000,0.000000,0.000000,-1,0.547177,-0.416789,-0.313211,0.152485,-0.179846,0.094530
"2018-06-07 00:17:58.909 +0000",1528330678.909344,0.425428,-1.229498,0.019267,0.138139,0.942321,-0.304875,0.000000,0.000000,0.000000,-1,0.523710,-0.446706,-0.262689,0.165694,-0.219375,0.150792
"2018-06-07 00:17:58.919 +0000",1528330678.919416,0.409917,-1.225753,0.007278,0.134799,0.941061,-0.310216,0.000000,0.000000,0.000000,-1,0.500063,-0.410820,-0.196916,0.180829,-0.254385,0.176610
"2018-06-07 00:17:58.929 +0000",1528330678.929491,0.396281,-1.221385,-0.002668,0.132142,0.939575,-0.315814,0.000000,0.000000,0.000000,-1,0.547797,-0.440660,-0.117514,0.200775,-0.243026,0.136096
"2018-06-07 00:17:58.940 +0000",1528330678.939564,0.383327,-1.215582,-0.011074,0.130077,0.937572,-0.322550,0.000000,0.000000,0.000000,-1,0.682639,-0.524114,-0.022333,0.192631,-0.190990,0.049967
"2018-06-07 00:17:58.950 +0000",1528330678.949636,0.371031,-1.207249,-0.018364,0.128929,0.934641,-0.331395,0.000000,0.000000,0.000000,-1,0.958962,-0.537053,0.104998,0.170769,-0.130610,-0.059108
"2018-06-07 00:17:58.960 +0000",1528330678.959711,0.361750,-1.194129,-0.024493,0.130177,0.929896,-0.344017,0.000000,0.000000,0.000000,-1,1.421287,-0.275411,0.323056,0.167522,-0.032618,-0.193612
"2018-06-07 00:17:58.970 +0000",1528330678.969784,0.358561,-1.175247,-0.026631,0.135217,0.922785,-0.360810,0.000000,0.000000,0.000000,-1,1.888868,-0.092309,0.687162,0.213583,0.116079,-0.362564
"2018-06-07 00:17:58.980 +0000",1528330678.979857,0.363411,-1.152030,-0.020423,0.144544,0.913591,-0.380076,0.000000,0.000000,0.000000,-1,2.108913,-0.079424,1.164282,0.292926,0.317045,-0.377782
"2018-06-07 00:17:58.990 +0000",1528330678.989931,0.376415,-1.126085,-0.005842,0.158135,0.902735,-0.400078,0.000000,0.000000,0.000000,-1,2.225266,-0.010654,1.596625,0.315528,0.552877,-0.369179
"2018-06-07 00:17:59.000 +0000",1528330679.000004,0.391620,-1.096718,0.012134,0.174247,0.889714,-0.421956,0.000000,0.000000,0.000000,-1,2.480473,-0.139609,1.889316,0.299722,0.793712,-0.470668
"2018-06-07 00:17:59.010 +0000",1528330679.010077,0.402716,-1.063472,0.029262,0.190410,0.874047,-0.446973,0.000000,0.000000,0.000000,-1,2.814667,-0.496111,2.045634,0.288167,1.030249,-0.507144
"2018-06-07 00:17:59.020 +0000",1528330679.020151,0.406783,-1.027906,0.043529,0.204401,0.856219,-0.474456,0.000000,0.000000,0.000000,-1,2.993771,-0.929158,2.027829,0.237524,1.200894,-0.364747
"2018-06-07 00:17:59.030 +0000",1528330679.030225,0.404682,-0.993644,0.055228,0.214833,0.838020,-0.501567,0.000000,0.000000,0.000000,-1,2.830398,-1.248395,1.868079,0.136577,1.232476,-0.102040
"2018-06-07 00:17:59.040 +0000",1528330679.040298,0.400982,-0.963532,0.066170,0.222727,0.821212,-0.525360,0.000000,0.000000,0.000000,-1,2.393868,-1.254304,1.678672,0.019461,1.168381,0.134155
"2018-06-07 00:17:59.050 +0000",1528330679.050371,0.399364,-0.939067,0.077533,0.229621,0.807007,-0.544070,0.000000,0.000000,0.000000,-1,1.842405,-0.997175,1.515034,-0.142509,1.072433,0.148593
"2018-06-07 00:17:59.060 +0000",1528330679.060445,0.401418,-0.919224,0.088893,0.236949,0.795131,-0.558230,0.000000,0.000000,0.000000,-1,1.477862,-0.619829,1.341636,-0.375087,0.916539,0.013553
"2018-06-07 00:17:59.071 +0000",1528330679.070518,0.403262,-0.902328,0.097677,0.243216,0.784772,-0.570069,0.000000,0.000000,0.000000,-1,1.346289,-0.488499,1.088467,-0.576026,0.700885,-0.107177
"2018-06-07 00:17:59.081 +0000",1528330679.080592,0.403685,-0.886801,0.103331,0.248214,0.775054,-0.581103,0.000000,0.000000,0.000000,-1,1.256364,-0.353959,0.882541,-0.680557,0.472031,-0.048856
"2018-06-07 00:17:59.091 +0000",1528330679.090665,0.405240,-0.872585,0.107455,0.253436,0.765993,-0.590783,0.000000,0.000000,0.000000,-1,1.174994,-0.077100,0.775968,-0.623401,0.289518,0.048485
"2018-06-07 00:17:59.101 +0000",1528330679.100738,0.412168,-0.859718,0.112307,0.261450,0.757658,-0.597994,0.000000,0.000000,0.000000,-1,0.991441,0.465634,0.812388,-0.427984,0.216173,0.145922
"2018-06-07 00:17:59.111 +0000",1528330679.110812,0.426795,-0.849331,0.119622,0.273411,0.750839,-0.601238,0.000000,0.000000,0.000000,-1,0.738282,1.036576,0.882394,-0.192433,0.206284,0.318935
"2018-06-07 00:17:59.121 +0000",1528330679.120884,0.446672,-0.840152,0.128301,0.288273,0.744745,-0.601875,0.000000,0.000000,0.000000,-1,0.533999,1.404767,0.904370,-0.077213,0.234229,0.336754
"2018-06-07 00:17:59.131 +0000",1528330679.130959,0.468924,-0.832629,0.137587,0.304117,0.739703,-0.600294,0.000000,0.000000,0.000000,-1,0.355550,1.546015,0.872921,-0.055520,0.176511,0.262327
"2018-06-07 00:17:59.141 +0000",1528330679.141032,0.489898,-0.826172,0.146537,0.318880,0.735342,-0.597986,0.000000,0.000000,0.000000,-1,0.282680,1.356157,0.811223,-0.086931,0.064646,0.178918
"2018-06-07 00:17:59.151 +0000",1528330679.151104,0.506246,-0.820559,0.154549,0.330609,0.731527,-0.596293,0.000000,0.000000,0.000000,-1,0.273140,0.916222,0.740048,-0.121441,-0.023367,0.068202
"2018-06-07 00:17:59.161 +0000",1528330679.161179,0.516659,-0.815116,0.161792,0.338762,0.727805,-0.596271,0.000000,0.000000,0.000000,-1,0.211118,0.371818,0.677295,-0.159929,-0.100272,0.057819
"2018-06-07 00:17:59.171 +0000",1528330679.171252,0.522669,-0.811072,0.168862,0.343806,0.725026,-0.596770,0.000000,0.000000,0.000000,-1,0.073431,0.012800,0.596968,-0.239177,-0.170933,0.117354
"2018-06-07 00:17:59.181 +0000",1528330679.181325,0.526214,-0.808750,0.175625,0.346764,0.723425,-0.597001,0.000000,0.000000,0.000000,-1,-0.067322,-0.169347,0.483818,-0.342278,-0.232245,0.191667
"2018-06-07 00:17:59.191 +0000",1528330679.191399,0.528186,-0.808677,0.181217,0.347968,0.723374,-0.596362,0.000000,0.000000,0.000000,-1,-0.170919,-0.213883,0.302142,-0.422507,-0.269776,0.247836
"2018-06-07 00:17:59.201 +0000",1528330679.201472,0.528374,-0.809893,0.184491,0.347635,0.724213,-0.595537,0.000000,0.000000,0.000000,-1,-0.230101,-0.217493,0.076381,-0.474665,-0.283311,0.263490
"2018-06-07 00:17:59.212 +0000",1528330679.211545,0.527049,-0.812649,0.185542,0.345841,0.726111,-0.594269,0.000000,0.000000,0.000000,-1,-0.288467,-0.192672,-0.122407,-0.449372,-0.303824,0.263825
"2018-06-07 00:17:59.222 +0000",1528330679.221619,0.525723,-0.816904,0.185037,0.343499,0.729030,-0.592050,0.000000,0.000000,0.000000,-1,-0.372471,-0.057225,-0.278865,-0.380700,-0.339000,0.321984
"2018-06-07 00:17:59.232 +0000",1528330679.231693,0.525153,-0.822969,0.183466,0.340939,0.733168,-0.588409,0.000000,0.000000,0.000000,-1,-0.455602,0.090211,-0.413777,-0.332272,-0.398695,0.380844
"2018-06-07 00:17:59.242 +0000",1528330679.241765,0.525018,-0.830045,0.180548,0.338250,0.737962,-0.583951,0.000000,0.000000,0.000000,-1,-0.528151,0.234423,-0.558403,-0.332513,-0.456117,0.404263
"2018-06-07 00:17:59.252 +0000",1528330679.251839,0.524924,-0.838603,0.176214,0.335018,0.743710,-0.578497,0.000000,0.000000,0.000000,-1,-0.611059,0.331456,-0.716051,-0.379238,-0.513149,0.416128
"2018-06-07 00:17:59.262 +0000",1528330679.261913,0.523903,-0.848788,0.170322,0.330620,0.750480,-0.572249,0.000000,0.000000,0.000000,-1,-0.705350,0.328603,-0.883644,-0.442376,-0.571327,0.408355
"2018-06-07 00:17:59.272 +0000",1528330679.271986,0.521110,-0.860944,0.163131,0.324455,0.758458,-0.565217,0.000000,0.000000,0.000000,-1,-0.817526,0.227931,-1.035346,-0.482017,-0.632100,0.385255
"2018-06-07 00:17:59.282 +0000",1528330679.282059,0.515532,-0.874709,0.154503,0.316120,0.767357,-0.557881,0.000000,0.000000,0.000000,-1,-0.943184,0.051531,-1.200145,-0.497943,-0.675972,0.355519
"2018-06-07 00:17:59.292 +0000",1528330679.292133,0.506208,-0.890329,0.144126,0.305056,0.777279,-0.550253,0.000000,0.000000,0.000000,-1,-1.060320,-0.196173,-1.371625,-0.485704,-0.695614,0.318793
"2018-06-07 00:17:59.302 +0000",1528330679.302206,0.492542,-0.907596,0.131808,0.291117,0.788026,-0.542463,0.000000,0.000000,0.000000,-1,-1.168109,-0.470266,-1.525990,-0.432200,-0.693269,0.285810
"2018-06-07 00:17:59.312 +0000",1528330679.312280,0.474650,-0.926697,0.117923,0.274435,0.799641,-0.534097,0.000000,0.000000,0.000000,-1,-1.299324,-0.757781,-1.637318,-0.332113,-0.671437,0.278222
"2018-06-07 00:17:59.322 +0000",1528330679.322353,0.453215,-0.947138,0.103375,0.255713,0.811747,-0.525049,0.000000,0.000000,0.000000,-1,-1.482551,-1.028165,-1.679635,-0.191824,-0.615367,0.290628
"2018-06-07 00:17:59.332 +0000",1528330679.332426,0.430439,-0.969541,0.089803,0.236040,0.824626,-0.514079,0.000000,0.000000,0.000000,-1,-1.750568,-1.187170,-1.636458,-0.015276,-0.523478,0.326991
"2018-06-07 00:17:59.343 +0000",1528330679.342500,0.410066,-0.994416,0.078990,0.217272,0.838441,-0.499809,0.000000,0.000000,0.000000,-1,-2.100290,-1.087647,-1.517046,0.175077,-0.401902,0.393288
"2018-06-07 00:17:59.353 +0000",1528330679.352573,0.396236,-1.022043,0.072646,0.201320,0.853176,-0.481208,0.000000,0.000000,0.000000,-1,-2.455012,-0.744742,-1.323772,0.353063,-0.278469,0.472938
"2018-06-07 00:17:59.363 +0000",1528330679.362647,0.392044,-1.051434,0.072243,0.189635,0.868136,-0.458670,0.000000,0.000000,0.000000,-1,-2.752531,-0.260301,-1.074283,0.470155,-0.192812,0.511038
"2018-06-07 00:17:59.373 +0000",1528330679.372720,0.397861,-1.081349,0.078560,0.182154,0.882593,-0.433417,0.000000,0.000000,0.000000,-1,-2.879041,0.104790,-0.784658,0.484640,-0.147501,0.443732
"2018-06-07 00:17:59.383 +0000",1528330679.382793,0.412469,-1.110113,0.093113,0.178212,0.895749,-0.407277,0.000000,0.000000,0.000000,-1,-2.882872,0.152688,-0.428472,0.399196,-0.149579,0.295933
"2018-06-07 00:17:59.393 +0000",1528330679.392867,0.432599,-1.137923,0.115978,0.175860,0.907764,-0.380838,0.000000,0.000000,0.000000,-1,-2.908596,-0.131610,-0.189371,0.220060,-0.185688,0.168863
"2018-06-07 00:17:59.403 +0000",1528330679.402940,0.454749,-1.165031,0.143459,0.173376,0.918800,-0.354607,0.000000,0.000000,0.000000,-1,-2.902427,-0.334858,-0.146950,-0.086737,-0.145210,0.109337
"2018-06-07 00:17:59.413 +0000",1528330679.413014,0.479639,-1.191492,0.174740,0.170866,0.928923,-0.328492,0.000000,0.000000,0.000000,-1,-2.868006,-0.401892,-0.107425,-0.293867,-0.014021,0.048783
"2018-06-07 00:17:59.423 +0000",1528330679.423087,0.511887,-1.216046,0.211993,0.170143,0.937733,-0.302832,0.000000,0.000000,0.000000,-1,-2.733963,-0.173856,0.053202,-0.293144,0.046169,-0.022119
"2018-06-07 00:17:59.433 +0000",1528330679.433160,0.554205,-1.237371,0.254392,0.172237,0.944927,-0.278293,0.000000,0.000000,0.000000,-1,-2.444549,0.393956,0.182193,-0.267391,0.059544,-0.164853
"2018-06-07 00:17:59.443 +0000",1528330679.443234,0.601423,-1.254143,0.295579,0.176188,0.950283,-0.256748,0.000000,0.000000,0.000000,-1,-1.980788,0.929871,0.179463,-0.281840,0.111485,-0.459148
"2018-06-07 00:17:59.453 +0000",1528330679.453307,0.644822,-1.265710,0.329526,0.180542,0.953821,-0.240062,0.000000,0.000000,0.000000,-1,-1.374837,1.130305,0.166826,-0.236267,0.107672,-0.813375
"2018-06-07 00:17:59.463 +0000",1528330679.463381,0.677457,-1.271899,0.351905,0.184575,0.955662,-0.229439,0.000000,0.000000,0.000000,-1,-0.736973,1.102593,0.129789,-0.228490,0.058270,-0.974189
"2018-06-07 00:17:59.473 +0000",1528330679.473454,0.696198,-1.274939,0.361352,0.186979,0.956552,-0.223710,0.000000,0.000000,0.000000,-1,-0.315617,0.897944,-0.004076,-0.341001,0.098791,-0.837615
"2018-06-07 00:17:59.484 +0000",1528330679.483527,0.699040,-1.276648,0.359160,0.186562,0.957050,-0.221926,0.000000,0.000000,0.000000,-1,-0.015201,0.309030,-0.207623,-0.455360,0.380002,-0.584700
"2018-06-07 00:17:59.494 +0000",1528330679.493601,0.678255,-1.276024,0.343453,0.182284,0.956868,-0.226221,0.000000,0.000000,0.000000,-1,0.504802,-0.880028,-0.345653,-0.439944,0.793727,-0.503988
"2018-06-07 00:17:59.504 +0000",1528330679.503674,0.629164,-1.268911,0.307201,0.174964,0.954778,-0.240390,0.000000,0.000000,0.000000,-1,1.403001,-1.543560,-0.421708,-0.253578,0.917156,-0.768811
"2018-06-07 00:17:59.514 +0000",1528330679.513747,0.581267,-1.258867,0.271241,0.168511,0.951743,-0.256493,0.000000,0.000000,0.000000,-1,1.358128,-1.161352,-0.233331,0.107353,0.660546,0.270806
"2018-06-07 00:17:59.524 +0000",1528330679.523821,0.570965,-1.251699,0.260550,0.169542,0.949519,-0.263949,0.000000,0.000000,0.000000,-1,0.525311,0.379982,0.247419,0.404936,0.302114,1.555788
"2018-06-07 00:17:59.534 +0000",1528330679.533894,0.603058,-1.250412,0.284846,0.178618,0.949114,-0.259379,0.000000,0.000000,0.000000,-1,-0.551118,0.981594,0.835710,0.254060,0.123212,1.360881
"2018-06-07 00:17:59.544 +0000",1528330679.543968,0.642003,-1.249969,0.317209,0.188833,0.948975,-0.252564,0.000000,0.000000,0.000000,-1,-0.426515,0.691243,0.785100,-0.321905,0.440246,-0.121902
"2018-06-07 00:17:59.554 +0000",1528330679.554041,0.649638,-1.244672,0.323484,0.193794,0.947291,-0.255114,0.000000,0.000000,0.000000,-1,0.564276,0.021515,0.415164,-0.358009,1.448369,-1.130323
"2018-06-07 00:17:59.564 +0000",1528330679.564114,0.639528,-1.233142,0.311395,0.197710,0.943534,-0.265807,0.000000,0.000000,0.000000,-1,1.299497,0.253105,0.388338,0.169386,1.904015,-0.772431
"2018-06-07 00:17:59.574 +0000",1528330679.574188,0.637107,-1.219492,0.297968,0.204709,0.938925,-0.276612,0.000000,0.000000,0.000000,-1,1.340937,1.330904,0.466674,0.605639,1.777201,-0.380446
"2018-06-07 00:17:59.584 +0000",1528330679.584261,0.648937,-1.204254,0.286626,0.216589,0.933572,-0.285538,0.000000,0.000000,0.000000,-1,1.517060,2.472338,0.642770,0.924158,0.864890,-0.081665
"2018-06-07 00:17:59.594 +0000",1528330679.594335,0.666040,-1.186511,0.276423,0.231640,0.927067,-0.294771,0.000000,0.000000,0.000000,-1,1.644412,2.599096,0.866581,0.837223,0.046322,0.071245
"2018-06-07 00:17:59.604 +0000",1528330679.604408,0.684236,-1.170302,0.274665,0.246431,0.920868,-0.302113,0.000000,0.000000,0.000000,-1,1.142449,1.698213,0.965145,0.443724,-0.279496,0.267827
"2018-06-07 00:17:59.614 +0000",1528330679.614481,0.698825,-1.159486,0.281090,0.257205,0.916598,-0.306094,0.000000,0.000000,0.000000,-1,0.515363,0.623420,0.828999,0.141339,-0.274813,0.296405
