timestamp,timeIntervalSince1970,attitude.roll,attitude.pitch,attitude.yaw,gravity.x,gravity.y,gravity.z,magneticField.x,magneticField.y,magneticField.z,magneticField.accuracy,rotationRate.x,rotationRate.y,rotationRate.z,userAcceleration.x,userAcceleration.y,userAcceleration.z
"2018-06-07 00:58:19.404 +0000",1528333099.403979,-0.118099,0.084262,0.009986,-0.117407,-0.084162,-0.989511,0.000000,0.000000,0.000000,-1,-1.235109,3.492313,0.600114,0.448156,0.113138,-0.061331
"2018-06-07 00:58:19.414 +0000",1528333099.414053,-0.077957,0.070569,0.016941,-0.077684,-0.070510,-0.994482,0.000000,0.000000,0.000000,-1,-1.302004,4.230866,0.876705,0.344407,0.038207,0.078954
"2018-06-07 00:58:19.424 +0000",1528333099.424128,-0.033767,0.056265,0.026124,-0.033707,-0.056235,-0.997848,0.000000,0.000000,0.000000,-1,-1.395615,4.416679,1.007613,0.184647,-0.052148,0.199005
"2018-06-07 00:58:19.434 +0000",1528333099.434202,0.004152,0.041470,0.035204,0.004148,-0.041458,-0.999132,0.000000,0.000000,0.000000,-1,-1.460904,3.547668,0.863250,-0.014524,-0.052597,0.049211
"2018-06-07 00:58:19.444 +0000",1528333099.444276,0.031164,0.027569,0.041027,0.031147,-0.027566,-0.999135,0.000000,0.000000,0.000000,-1,-1.356755,2.428936,0.432726,-0.228749,0.066964,-0.104549
"2018-06-07 00:58:19.454 +0000",1528333099.454350,0.048531,0.014969,0.041905,0.048506,-0.014968,-0.998711,0.000000,0.000000,0.000000,-1,-1.219499,1.512689,-0.094093,-0.376738,0.236648,-0.100441
"2018-06-07 00:58:19.464 +0000",1528333099.464425,0.059492,0.003184,0.038298,0.059457,-0.003184,-0.998226,0.000000,0.000000,0.000000,-1,-1.126520,0.986665,-0.511035,-0.350106,0.337794,-0.087788
"2018-06-07 00:58:19.474 +0000",1528333099.474499,0.069657,-0.007893,0.032908,0.069599,0.007892,-0.997544,0.000000,0.000000,0.000000,-1,-1.046114,1.062990,-0.595973,-0.059360,0.272808,-0.023834
"2018-06-07 00:58:19.485 +0000",1528333099.484573,0.083563,-0.019142,0.030894,0.083451,0.019141,-0.996328,0.000000,0.000000,0.000000,-1,-1.139315,1.510910,-0.140535,0.365173,0.048852,0.088339
"2018-06-07 00:58:19.495 +0000",1528333099.494647,0.102656,-0.032826,0.035650,0.102420,0.032820,-0.994200,0.000000,0.000000,0.000000,-1,-1.493362,1.981497,0.496276,0.520199,-0.074324,0.185942
"2018-06-07 00:58:19.505 +0000",1528333099.504722,0.125747,-0.048731,0.045437,0.125267,0.048711,-0.990927,0.000000,0.000000,0.000000,-1,-1.712822,2.353734,0.852824,0.379433,0.046061,0.092169
"2018-06-07 00:58:19.515 +0000",1528333099.514796,0.154486,-0.064261,0.057131,0.153555,0.064217,-0.986051,0.000000,0.000000,0.000000,-1,-1.672076,2.953947,0.943755,0.204996,0.174644,-0.053057
"2018-06-07 00:58:19.525 +0000",1528333099.524870,0.191317,-0.078971,0.069242,0.189559,0.078889,-0.978695,0.000000,0.000000,0.000000,-1,-1.646423,3.781836,0.920289,0.136399,0.187621,-0.080341
"2018-06-07 00:58:19.535 +0000",1528333099.534944,0.231663,-0.093481,0.081454,0.228594,0.093345,-0.969036,0.000000,0.000000,0.000000,-1,-1.652264,3.775481,0.861124,0.172804,0.117989,0.006542
"2018-06-07 00:58:19.545 +0000",1528333099.545019,0.255920,-0.104451,0.091530,0.251756,0.104261,-0.962158,0.000000,0.000000,0.000000,-1,-1.145447,1.820574,0.619785,0.142943,0.027483,-0.217255
"2018-06-07 00:58:19.555 +0000",1528333099.555093,0.268207,-0.112902,0.097261,0.263316,0.112662,-0.958108,0.000000,0.000000,0.000000,-1,-0.963278,1.038837,0.245997,-0.020686,0.062417,-0.227942
"2018-06-07 00:58:19.565 +0000",1528333099.565167,0.279259,-0.124443,0.102831,0.273512,0.124122,-0.953826,0.000000,0.000000,0.000000,-1,-1.365568,1.077252,0.242727,0.014360,0.084252,0.198364
"2018-06-07 00:58:19.575 +0000",1528333099.575241,0.291276,-0.138659,0.110817,0.284419,0.138216,-0.948685,0.000000,0.000000,0.000000,-1,-1.612417,1.044130,0.386257,0.064367,-0.014238,0.237961
"2018-06-07 00:58:19.585 +0000",1528333099.585316,0.299501,-0.152463,0.118999,0.291621,0.151873,-0.944400,0.000000,0.000000,0.000000,-1,-1.501418,0.565952,0.352342,-0.006358,-0.008043,-0.002957
"2018-06-07 00:58:19.595 +0000",1528333099.595390,0.301878,-0.164427,0.126133,0.293304,0.163687,-0.941902,0.000000,0.000000,0.000000,-1,-1.285239,-0.019490,0.312497,-0.032272,0.044061,-0.102608
"2018-06-07 00:58:19.605 +0000",1528333099.605464,0.300316,-0.174029,0.133442,0.291354,0.173152,-0.940814,0.000000,0.000000,0.000000,-1,-1.072766,-0.329037,0.447717,0.049924,0.038122,-0.135220
"2018-06-07 00:58:19.616 +0000",1528333099.615538,0.298262,-0.181466,0.142525,0.289034,0.180472,-0.940154,0.000000,0.000000,0.000000,-1,-0.934944,-0.362626,0.695777,0.155210,0.045404,-0.091188
"2018-06-07 00:58:19.626 +0000",1528333099.625613,0.297478,-0.186584,0.153990,0.288022,0.185504,-0.939485,0.000000,0.000000,0.000000,-1,-0.769348,-0.244886,1.001224,0.252475,0.022977,-0.079574
"2018-06-07 00:58:19.636 +0000",1528333099.635687,0.299958,-0.189137,0.168461,0.290211,0.188011,-0.938312,0.000000,0.000000,0.000000,-1,-0.632765,0.070118,1.367547,0.352200,-0.005028,-0.083050
"2018-06-07 00:58:19.646 +0000",1528333099.645761,0.308643,-0.190943,0.186863,0.298245,0.189785,-0.935431,0.000000,0.000000,0.000000,-1,-0.759207,0.699373,1.752596,0.392001,0.043644,0.025656
"2018-06-07 00:58:19.656 +0000",1528333099.655835,0.327605,-0.194855,0.209828,0.315687,0.193624,-0.928898,0.000000,0.000000,0.000000,-1,-1.194390,1.722105,2.081413,0.386553,0.078242,0.234653
"2018-06-07 00:58:19.666 +0000",1528333099.665910,0.359343,-0.203287,0.237306,0.344418,0.201889,-0.916852,0.000000,0.000000,0.000000,-1,-1.866018,2.906142,2.269255,0.339420,0.039627,0.409482
"2018-06-07 00:58:19.676 +0000",1528333099.675984,0.403427,-0.217341,0.267462,0.383337,0.215634,-0.898084,0.000000,0.000000,0.000000,-1,-2.544592,4.016841,2.139584,0.203760,-0.045803,0.468412
"2018-06-07 00:58:19.686 +0000",1528333099.686058,0.456493,-0.236397,0.297128,0.428543,0.234201,-0.872640,0.000000,0.000000,0.000000,-1,-3.016693,4.775927,1.700783,0.016311,-0.085245,0.407537
"2018-06-07 00:58:19.696 +0000",1528333099.696132,0.515501,-0.259042,0.325471,0.476523,0.256155,-0.841017,0.000000,0.000000,0.000000,-1,-3.334148,5.282959,1.260895,-0.060004,-0.064962,0.307478
"2018-06-07 00:58:19.706 +0000",1528333099.706207,0.578239,-0.283273,0.353671,0.524768,0.279500,-0.804051,0.000000,0.000000,0.000000,-1,-3.468900,5.502131,1.000460,0.003430,0.006938,0.183583
"2018-06-07 00:58:19.716 +0000",1528333099.716281,0.641171,-0.304851,0.381791,0.570555,0.300151,-0.764445,0.000000,0.000000,0.000000,-1,-3.194479,5.402002,0.975876,0.122194,0.085027,-0.040472
"2018-06-07 00:58:19.726 +0000",1528333099.726355,0.731816,-0.328912,0.419150,0.632401,0.323013,-0.704081,0.000000,0.000000,0.000000,-1,-2.739259,5.239799,1.214230,0.271087,0.095673,-0.197118
"2018-06-07 00:58:19.736 +0000",1528333099.736429,0.792732,-0.337058,0.449402,0.672195,0.330712,-0.662407,0.000000,0.000000,0.000000,-1,-2.509800,5.002840,1.590567,0.389878,0.043785,-0.101753
"2018-06-07 00:58:19.747 +0000",1528333099.746504,0.852520,-0.341099,0.482527,0.709562,0.334523,-0.620174,0.000000,0.000000,0.000000,-1,-2.576945,4.806045,1.878421,0.364718,0.009655,0.077175
"2018-06-07 00:58:19.757 +0000",1528333099.756578,0.913711,-0.343019,0.518449,0.745650,0.336332,-0.575227,0.000000,0.000000,0.000000,-1,-2.768172,4.931212,2.008300,0.243196,0.015078,0.235597
"2018-06-07 00:58:19.767 +0000",1528333099.766652,0.980079,-0.342733,0.558081,0.782236,0.336063,-0.524564,0.000000,0.000000,0.000000,-1,-2.976679,5.146664,2.325644,0.149893,-0.025851,0.281110
"2018-06-07 00:58:19.777 +0000",1528333099.776726,1.045188,-0.336483,0.601583,0.816510,0.330169,-0.473602,0.000000,0.000000,0.000000,-1,-3.167692,4.927022,2.743869,0.177478,-0.220657,0.119400
"2018-06-07 00:58:19.787 +0000",1528333099.786801,1.101790,-0.329278,0.644583,0.844094,0.323360,-0.427716,0.000000,0.000000,0.000000,-1,-3.199030,3.919375,2.435526,0.081855,0.134480,-0.197863
"2018-06-07 00:58:19.797 +0000",1528333099.796875,1.147929,-0.324986,0.679348,0.864181,0.319296,-0.388896,0.000000,0.000000,0.000000,-1,-2.370292,3.730199,1.498342,-0.149765,0.413676,-0.458242
"2018-06-07 00:58:19.807 +0000",1528333099.806949,1.198945,-0.325647,0.681207,0.882692,0.319921,-0.344245,0.000000,0.000000,0.000000,-1,0.246991,4.819020,-0.394392,-1.003770,0.437220,-1.407159
"2018-06-07 00:58:19.817 +0000",1528333099.817023,1.233585,-0.331655,0.671725,0.892254,0.325608,-0.312826,0.000000,0.000000,0.000000,-1,0.708257,3.411895,-0.926608,-0.484158,-0.177140,-0.798548
"2018-06-07 00:58:19.827 +0000",1528333099.827098,1.259049,-0.335850,0.660838,0.898622,0.329572,-0.289585,0.000000,0.000000,0.000000,-1,0.853411,2.769835,-0.600736,0.108245,-0.358579,-0.270641
"2018-06-07 00:58:19.837 +0000",1528333099.837172,1.281554,-0.334902,0.653881,0.905209,0.328677,-0.269379,0.000000,0.000000,0.000000,-1,0.547317,2.369948,0.053869,0.075198,-0.322070,-0.188156
"2018-06-07 00:58:19.847 +0000",1528333099.847246,1.302526,-0.331939,0.653500,0.911594,0.325877,-0.250595,0.000000,0.000000,0.000000,-1,-0.004598,1.920549,0.309829,-0.012317,-0.193721,-0.069504
"2018-06-07 00:58:19.857 +0000",1528333099.857320,1.320245,-0.330233,0.657050,0.916429,0.324264,-0.234540,0.000000,0.000000,0.000000,-1,-0.338619,1.578602,0.217094,-0.159226,-0.110198,-0.107104
"2018-06-07 00:58:19.867 +0000",1528333099.867395,1.336690,-0.329269,0.661191,0.920465,0.323351,-0.219512,0.000000,0.000000,0.000000,-1,-0.343641,1.486453,0.198551,-0.148752,-0.150713,-0.134324
"2018-06-07 00:58:19.877 +0000",1528333099.877469,1.353212,-0.326512,0.665830,0.924833,0.320741,-0.204466,0.000000,0.000000,0.000000,-1,-0.395830,1.490832,0.428872,-0.022322,-0.145372,-0.118868
"2018-06-07 00:58:19.888 +0000",1528333099.887543,1.372474,-0.323022,0.674790,0.929691,0.317434,-0.186834,0.000000,0.000000,0.000000,-1,-0.789589,1.382689,0.563914,0.008221,-0.011037,0.019720
"2018-06-07 00:58:19.898 +0000",1528333099.897617,1.388611,-0.319754,0.687979,0.933601,0.314333,-0.171995,0.000000,0.000000,0.000000,-1,-1.276548,1.109163,0.545948,0.010827,0.111205,0.113905
"2018-06-07 00:58:19.908 +0000",1528333099.907692,1.401687,-0.317437,0.705282,0.936485,0.312133,-0.159896,0.000000,0.000000,0.000000,-1,-1.657018,0.616487,0.502360,0.045846,0.098466,0.087493
"2018-06-07 00:58:19.918 +0000",1528333099.917766,1.410425,-0.315304,0.725025,0.938501,0.310105,-0.151812,0.000000,0.000000,0.000000,-1,-1.800651,0.190075,0.520810,0.027319,0.033416,0.023715
"2018-06-07 00:58:19.928 +0000",1528333099.927840,1.486676,-0.323933,0.766402,0.944637,0.318297,-0.079652,0.000000,0.000000,0.000000,-1,-1.739148,-0.059332,0.612450,0.023457,-0.068740,-0.121398
"2018-06-07 00:58:19.938 +0000",1528333099.937915,1.488205,-0.318285,0.788520,0.946534,0.312938,-0.078353,0.000000,0.000000,0.000000,-1,-2.215543,-0.775999,0.778181,0.041030,-0.063747,0.046157
"2018-06-07 00:58:19.948 +0000",1528333099.947989,1.480165,-0.311307,0.825312,0.948025,0.306303,-0.086156,0.000000,0.000000,0.000000,-1,-3.833905,-2.283489,1.074380,0.110446,-0.045271,0.697897
"2018-06-07 00:58:19.958 +0000",1528333099.958063,1.467768,-0.301946,0.875429,0.949695,0.297379,-0.098193,0.000000,0.000000,0.000000,-1,-4.802926,-2.799490,1.491372,0.092999,0.022186,0.952136
"2018-06-07 00:58:19.968 +0000",1528333099.968137,1.592518,-0.313963,0.968086,0.950891,0.308830,0.020658,0.000000,0.000000,0.000000,-1,-4.675476,-2.594696,1.692822,-0.108331,0.033211,0.298052
"2018-06-07 00:58:19.978 +0000",1528333099.978211,1.582767,-0.298577,1.009467,0.955686,0.294160,0.011441,0.000000,0.000000,0.000000,-1,-3.652453,-2.089864,1.357422,-0.318753,-0.074952,-0.068631
"2018-06-07 00:58:19.988 +0000",1528333099.988286,1.572021,-0.287832,1.037393,0.958859,0.283874,0.001174,0.000000,0.000000,0.000000,-1,-2.331404,-1.814429,0.948604,-0.332714,-0.145416,-0.402434
"2018-06-07 00:58:19.998 +0000",1528333099.998360,1.559448,-0.280934,1.053372,0.960733,0.277253,-0.010903,0.000000,0.000000,0.000000,-1,-1.288124,-1.654255,0.616458,-0.210977,-0.131822,-0.553321
"2018-06-07 00:58:20.008 +0000",1528333100.008434,1.653702,-0.307237,1.093518,0.949897,0.302426,0.078933,0.000000,0.000000,0.000000,-1,-0.757528,-1.580718,0.447656,-0.050071,-0.199124,-0.609023
"2018-06-07 00:58:20.019 +0000",1528333100.018509,1.641099,-0.303485,1.098702,0.951941,0.298847,0.067035,0.000000,0.000000,0.000000,-1,-0.424700,-1.299213,0.292820,0.050729,-0.349964,-0.596530
"2018-06-07 00:58:20.029 +0000",1528333100.028583,1.633954,-0.301833,1.098170,0.952887,0.297271,0.060262,0.000000,0.000000,0.000000,-1,0.218567,-0.461336,0.129210,0.053811,-0.428512,-0.710775
"2018-06-07 00:58:20.039 +0000",1528333100.038658,1.634787,-0.301998,1.090988,0.952788,0.297429,0.061053,0.000000,0.000000,0.000000,-1,0.800561,0.535437,-0.007981,0.061098,-0.336781,-0.874133
"2018-06-07 00:58:20.049 +0000",1528333100.048732,1.642714,-0.304269,1.081841,0.951598,0.299596,0.068555,0.000000,0.000000,0.000000,-1,0.860498,1.197414,-0.235305,0.045900,-0.322652,-0.719663
"2018-06-07 00:58:20.059 +0000",1528333100.058807,1.655763,-0.310152,1.075373,0.948850,0.305203,0.080815,0.000000,0.000000,0.000000,-1,0.574469,1.579277,-0.648738,-0.034558,-0.317807,-0.499074
"2018-06-07 00:58:20.069 +0000",1528333100.068881,1.674156,-0.320554,1.072661,0.943994,0.315093,0.097919,0.000000,0.000000,0.000000,-1,0.286697,2.033822,-1.117889,-0.140557,-0.231459,-0.389362
"2018-06-07 00:58:20.079 +0000",1528333100.078955,1.700617,-0.334104,1.072194,0.936752,0.327923,0.122298,0.000000,0.000000,0.000000,-1,0.190134,2.897457,-1.370084,-0.214920,-0.110989,-0.396773
"2018-06-07 00:58:20.089 +0000",1528333100.089029,1.813899,-0.362162,1.097631,0.907634,0.354296,0.225100,0.000000,0.000000,0.000000,-1,0.300205,4.050855,-1.211012,-0.071727,0.048414,-0.499911
"2018-06-07 00:58:20.099 +0000",1528333100.099104,1.858393,-0.373446,1.095598,0.892832,0.364826,0.264098,0.000000,0.000000,0.000000,-1,0.573222,4.513928,-0.985480,0.197469,0.079128,-0.476378
"2018-06-07 00:58:20.109 +0000",1528333100.109178,1.893069,-0.386032,1.086507,0.878715,0.376515,0.293415,0.000000,0.000000,0.000000,-1,1.408776,3.430288,-0.921705,0.255379,0.054713,-0.651676
"2018-06-07 00:58:20.119 +0000",1528333100.119252,1.910065,-0.399836,1.069675,0.868617,0.389267,0.306548,0.000000,0.000000,0.000000,-1,1.992630,2.019376,-0.730303,0.282430,-0.000641,-0.677535
"2018-06-07 00:58:20.129 +0000",1528333100.129326,1.918570,-0.410937,1.055103,0.861863,0.399469,0.312432,0.000000,0.000000,0.000000,-1,1.421644,1.218938,-0.546313,0.204879,-0.030145,-0.047646
"2018-06-07 00:58:20.139 +0000",1528333100.139401,1.921392,-0.417756,1.049023,0.858400,0.405710,0.313920,0.000000,0.000000,0.000000,-1,0.546676,0.273010,-0.424438,0.024977,0.029898,0.292739
"2018-06-07 00:58:20.149 +0000",1528333100.149475,1.916582,-0.422535,1.048864,0.858066,0.410074,0.309127,0.000000,0.000000,0.000000,-1,0.090992,-0.702921,-0.461729,-0.073520,-0.008844,0.029359
"2018-06-07 00:58:20.160 +0000",1528333100.159549,1.905459,-0.428262,1.051241,0.859218,0.415291,0.298787,0.000000,0.000000,0.000000,-1,-0.030773,-1.329224,-0.667645,-0.182613,-0.104118,-0.259999
"2018-06-07 00:58:20.170 +0000",1528333100.169623,1.891316,-0.436785,1.054674,0.859968,0.423029,0.285480,0.000000,0.000000,0.000000,-1,-0.011275,-1.592401,-0.985770,-0.224317,-0.136286,-0.415943
"2018-06-07 00:58:20.180 +0000",1528333100.179698,1.877011,-0.448362,1.058026,0.859236,0.433490,0.271655,0.000000,0.000000,0.000000,-1,0.108183,-1.525175,-1.231095,-0.158125,-0.090473,-0.466769
"2018-06-07 00:58:20.190 +0000",1528333100.189772,1.865098,-0.461600,1.059099,0.856844,0.445381,0.259712,0.000000,0.000000,0.000000,-1,0.368758,-1.113621,-1.293958,-0.013949,-0.065758,-0.494713
"2018-06-07 00:58:20.200 +0000",1528333100.199846,1.855791,-0.475765,1.057153,0.853084,0.458018,0.249928,0.000000,0.000000,0.000000,-1,0.616326,-0.753946,-1.297781,0.209507,-0.056697,-0.450016
"2018-06-07 00:58:20.210 +0000",1528333100.209920,1.849329,-0.490508,1.054637,0.848096,0.471074,0.242527,0.000000,0.000000,0.000000,-1,0.601854,-0.449619,-1.365704,0.378299,-0.097844,-0.320790
"2018-06-07 00:58:20.220 +0000",1528333100.219995,1.845044,-0.506165,1.052735,0.841924,0.484826,0.236864,0.000000,0.000000,0.000000,-1,0.600572,-0.322867,-1.487956,0.315394,-0.207635,-0.290361
"2018-06-07 00:58:20.230 +0000",1528333100.230069,1.839096,-0.525119,1.048934,0.834306,0.501316,0.229375,0.000000,0.000000,0.000000,-1,0.909978,-0.434757,-1.826743,0.160613,-0.362278,-0.520589
"2018-06-07 00:58:20.240 +0000",1528333100.240143,1.836097,-0.549876,1.044787,0.822759,0.522582,0.223548,0.000000,0.000000,0.000000,-1,0.968813,0.054273,-2.436421,-0.110356,-0.382811,-0.579017
"2018-06-07 00:58:20.250 +0000",1528333100.250217,1.840944,-0.579636,1.043973,0.806316,0.547719,0.223283,0.000000,0.000000,0.000000,-1,0.817851,0.663110,-2.959219,-0.102871,-0.079442,-0.206864
"2018-06-07 00:58:20.260 +0000",1528333100.260292,1.850895,-0.614629,1.046082,0.785146,0.576656,0.225856,0.000000,0.000000,0.000000,-1,0.762165,0.922249,-3.535959,-0.015340,-0.217387,-0.178142
"2018-06-07 00:58:20.270 +0000",1528333100.270366,1.865242,-0.654206,1.052317,0.759378,0.608530,0.230289,0.000000,0.000000,0.000000,-1,0.573565,1.078547,-4.025583,-0.001139,-0.271524,-0.223514
"2018-06-07 00:58:20.280 +0000",1528333100.280440,1.882196,-0.696998,1.064869,0.729893,0.641919,0.234932,0.000000,0.000000,0.000000,-1,0.264050,0.801707,-4.445181,-0.006398,-0.118863,-0.143074
"2018-06-07 00:58:20.291 +0000",1528333100.290514,1.897677,-0.739448,1.083319,0.699716,0.673880,0.237234,0.000000,0.000000,0.000000,-1,-0.051159,0.158243,-4.351674,0.047629,-0.098013,-0.130911
"2018-06-07 00:58:20.301 +0000",1528333100.300589,1.904497,-0.776420,1.101882,0.674070,0.700729,0.233676,0.000000,0.000000,0.000000,-1,-0.051571,-0.868452,-3.760904,0.410830,-0.065720,-0.165470
"2018-06-07 00:58:20.311 +0000",1528333100.310663,1.898333,-0.808997,1.116582,0.653529,0.723595,0.222053,0.000000,0.000000,0.000000,-1,0.132686,-1.885378,-3.283470,0.526281,-0.118279,-0.282081
"2018-06-07 00:58:20.321 +0000",1528333100.320737,1.882526,-0.839065,1.126192,0.635955,0.744018,0.204928,0.000000,0.000000,0.000000,-1,0.404835,-2.316256,-2.971259,0.430879,-0.358597,-0.376177
"2018-06-07 00:58:20.331 +0000",1528333100.330811,1.864143,-0.868095,1.130031,0.618671,0.763099,0.186877,0.000000,0.000000,0.000000,-1,0.658274,-1.980436,-2.779397,0.360897,-0.413215,-0.368288
"2018-06-07 00:58:20.341 +0000",1528333100.340886,1.850097,-0.895820,1.131658,0.600663,0.780722,0.172268,0.000000,0.000000,0.000000,-1,0.681623,-1.450888,-2.602580,0.123733,-0.060476,-0.156231
"2018-06-07 00:58:20.351 +0000",1528333100.350960,1.831700,-0.917392,1.127893,0.587318,0.794019,0.156808,0.000000,0.000000,0.000000,-1,0.833858,-1.596722,-1.755745,0.244881,0.001849,-0.354089
"2018-06-07 00:58:20.361 +0000",1528333100.361034,1.806024,-0.929824,1.117320,0.581506,0.801515,0.139366,0.000000,0.000000,0.000000,-1,0.935221,-1.697914,-0.854881,0.474585,0.067519,-0.718270
"2018-06-07 00:58:20.371 +0000",1528333100.371108,1.789681,-0.937026,1.107114,0.578057,0.805801,0.128588,0.000000,0.000000,0.000000,-1,0.618297,-0.341193,-0.511380,0.183937,0.244309,-0.574480
"2018-06-07 00:58:20.381 +0000",1528333100.381183,1.796087,-0.941575,1.108622,0.573642,0.808486,0.131468,0.000000,0.000000,0.000000,-1,-0.188756,0.589363,-0.437984,-0.267688,0.338074,0.026170
"2018-06-07 00:58:20.391 +0000",1528333100.391257,1.802741,-0.942449,1.118699,0.572067,0.809000,0.135120,0.000000,0.000000,0.000000,-1,-0.638671,-0.472562,-0.121652,-0.214584,0.260549,-0.498004
"2018-06-07 00:58:20.401 +0000",1528333100.401331,1.801142,-0.939380,1.129022,0.574697,0.807193,0.134771,0.000000,0.000000,0.000000,-1,-0.640896,-1.031738,0.237068,-0.022176,0.208432,-0.713155
"2018-06-07 00:58:20.411 +0000",1528333100.411405,1.801721,-0.935515,1.137923,0.577652,0.804905,0.135817,0.000000,0.000000,0.000000,-1,-0.585685,-0.516713,0.233061,-0.149933,0.385418,-0.272276
"2018-06-07 00:58:20.421 +0000",1528333100.421480,1.804067,-0.933278,1.145811,0.579082,0.803575,0.137588,0.000000,0.000000,0.000000,-1,-0.466888,-0.449850,0.073788,-0.087749,0.305342,-0.131347
"2018-06-07 00:58:20.432 +0000",1528333100.431554,1.801379,-0.931921,1.152117,0.580511,0.802767,0.136280,0.000000,0.000000,0.000000,-1,-0.389615,-0.852399,0.045549,0.067164,0.093031,-0.281360
"2018-06-07 00:58:20.442 +0000",1528333100.441628,1.800417,-0.930682,1.159768,0.581610,0.802027,0.135947,0.000000,0.000000,0.000000,-1,-0.503978,-0.590146,-0.002906,0.052805,-0.113246,-0.235175
"2018-06-07 00:58:20.452 +0000",1528333100.451702,1.805197,-0.929500,1.169541,0.581875,0.801321,0.138946,0.000000,0.000000,0.000000,-1,-0.612403,-0.251192,-0.013503,-0.014263,-0.152411,-0.267806
"2018-06-07 00:58:20.462 +0000",1528333100.461777,1.810620,-0.927119,1.180130,0.582964,0.799894,0.142552,0.000000,0.000000,0.000000,-1,-0.675214,-0.363857,0.110012,0.039487,-0.108610,-0.369557
"2018-06-07 00:58:20.472 +0000",1528333100.471851,1.812863,-0.924514,1.190874,0.584664,0.798328,0.144359,0.000000,0.000000,0.000000,-1,-0.695802,-0.736022,0.101447,0.034095,-0.163608,-0.377910
"2018-06-07 00:58:20.482 +0000",1528333100.481925,1.814698,-0.921322,1.204777,0.586868,0.796402,0.146046,0.000000,0.000000,0.000000,-1,-0.958094,-0.948572,0.089597,0.137177,-0.289139,-0.324604
"2018-06-07 00:58:20.492 +0000",1528333100.491999,1.819195,-0.920803,1.225331,0.586606,0.796088,0.148785,0.000000,0.000000,0.000000,-1,-1.317515,-1.308746,-0.386063,0.150409,-0.130439,-0.351483
"2018-06-07 00:58:20.502 +0000",1528333100.502074,1.826219,-0.922066,1.258696,0.584574,0.796851,0.152647,0.000000,0.000000,0.000000,-1,-2.103510,-2.045287,-0.660695,0.020254,0.080727,-0.555311
"2018-06-07 00:58:20.512 +0000",1528333100.512148,1.843272,-0.921675,1.302015,0.582186,0.796615,0.162677,0.000000,0.000000,0.000000,-1,-2.629491,-1.565023,-0.613992,0.059584,-0.064209,-0.307193
"2018-06-07 00:58:20.522 +0000",1528333100.522222,1.870742,-0.918354,1.349659,0.580021,0.794603,0.179387,0.000000,0.000000,0.000000,-1,-2.901329,-0.886945,-0.450050,0.095745,-0.222399,-0.201391
"2018-06-07 00:58:20.532 +0000",1528333100.532296,1.904936,-0.912975,1.399016,0.577579,0.791326,0.200511,0.000000,0.000000,0.000000,-1,-3.021662,-0.352713,-0.438539,0.064892,-0.203924,-0.369975
"2018-06-07 00:58:20.542 +0000",1528333100.542371,1.946423,-0.907812,1.448162,0.572559,0.788159,0.225789,0.000000,0.000000,0.000000,-1,-2.947816,0.532930,-0.589949,0.001034,0.032321,-0.391118
"2018-06-07 00:58:20.552 +0000",1528333100.552445,1.996092,-0.901817,1.490445,0.564937,0.784455,0.255882,0.000000,0.000000,0.000000,-1,-2.481170,1.907792,-0.388024,0.029134,0.048217,-0.207313
"2018-06-07 00:58:20.563 +0000",1528333100.562519,2.036975,-0.894802,1.519922,0.558909,0.780085,0.281225,0.000000,0.000000,0.000000,-1,-1.753252,1.630810,-0.085014,0.177679,-0.042353,-0.530919
"2018-06-07 00:58:20.573 +0000",1528333100.572593,2.064126,-0.888023,1.537092,0.555713,0.775826,0.298792,0.000000,0.000000,0.000000,-1,-1.123552,1.326376,0.154679,0.218167,-0.045952,-0.783731
"2018-06-07 00:58:20.583 +0000",1528333100.582668,2.084084,-0.881657,1.547617,0.553931,0.771793,0.312242,0.000000,0.000000,0.000000,-1,-0.832048,1.095170,0.246920,0.125436,-0.068836,-0.352876
"2018-06-07 00:58:20.593 +0000",1528333100.592742,2.098101,-0.875844,1.556560,0.553367,0.768084,0.322227,0.000000,0.000000,0.000000,-1,-0.763957,0.557648,0.200023,0.087502,-0.015749,-0.204399
"2018-06-07 00:58:20.603 +0000",1528333100.602816,2.105820,-0.871337,1.563765,0.553836,0.765191,0.328250,0.000000,0.000000,0.000000,-1,-0.548898,0.146800,0.147780,0.024793,0.046531,-0.252963
"2018-06-07 00:58:20.613 +0000",1528333100.612890,2.107632,-0.868424,1.565268,0.555153,0.763312,0.330392,0.000000,0.000000,0.000000,-1,-0.120878,0.048858,0.227188,0.019752,0.057977,-0.324761
"2018-06-07 00:58:20.623 +0000",1528333100.622965,2.104099,-0.866517,1.560434,0.557570,0.762078,0.329168,0.000000,0.000000,0.000000,-1,0.259465,0.007672,0.353124,0.053652,0.027610,-0.309469
"2018-06-07 00:58:20.633 +0000",1528333100.633039,2.096013,-0.865198,1.550212,0.561082,0.761224,0.325152,0.000000,0.000000,0.000000,-1,0.581057,-0.052312,0.472685,0.057707,-0.010598,-0.245532
"2018-06-07 00:58:20.643 +0000",1528333100.643113,2.083378,-0.864859,1.535931,0.565371,0.761004,0.318164,0.000000,0.000000,0.000000,-1,0.842712,-0.215171,0.476990,0.002149,0.002363,-0.274661
"2018-06-07 00:58:20.653 +0000",1528333100.653187,2.072655,-0.868490,1.519046,0.566324,0.763354,0.310752,0.000000,0.000000,0.000000,-1,1.248471,0.471549,0.075767,0.016425,0.095212,-0.205604
"2018-06-07 00:58:20.663 +0000",1528333100.663262,2.065727,-0.878767,1.498558,0.561530,0.769953,0.303079,0.000000,0.000000,0.000000,-1,1.732755,0.828323,-0.388983,0.383493,-0.032465,-0.036737
"2018-06-07 00:58:20.673 +0000",1528333100.673336,2.051124,-0.892976,1.475196,0.556137,0.778941,0.289763,0.000000,0.000000,0.000000,-1,2.021506,0.166826,-0.569049,0.423828,-0.187556,-0.416700
"2018-06-07 00:58:20.683 +0000",1528333100.683410,2.026848,-0.906672,1.449226,0.553376,0.787457,0.271453,0.000000,0.000000,0.000000,-1,2.024515,-0.563638,-0.460390,0.139114,-0.022335,-0.525131
"2018-06-07 00:58:20.693 +0000",1528333100.693484,2.000204,-0.917476,1.426715,0.552643,0.794070,0.253058,0.000000,0.000000,0.000000,-1,1.542051,-0.924334,-0.368904,-0.015930,0.020337,-0.439062
"2018-06-07 00:58:20.704 +0000",1528333100.703559,1.981523,-0.926597,1.412826,0.550611,0.799581,0.239789,0.000000,0.000000,0.000000,-1,1.023243,-0.662669,-0.545512,0.013781,-0.251836,-0.361355
"2018-06-07 00:58:20.714 +0000",1528333100.713633,1.971896,-0.936871,1.404520,0.545301,0.805709,0.231257,0.000000,0.000000,0.000000,-1,0.811479,-0.181392,-0.794253,0.048037,-0.183989,-0.398417
"2018-06-07 00:58:20.724 +0000",1528333100.723707,1.967624,-0.946095,1.399575,0.539407,0.811138,0.226043,0.000000,0.000000,0.000000,-1,0.540357,0.013810,-0.663986,0.162070,0.093266,-0.425033
"2018-06-07 00:58:20.734 +0000",1528333100.733781,1.970289,-0.946299,1.399143,0.538650,0.811257,0.227416,0.000000,0.000000,0.000000,-1,-0.131990,0.333538,0.134461,0.243637,0.096122,-0.295821
"2018-06-07 00:58:20.744 +0000",1528333100.743856,1.975781,-0.945031,1.403619,0.538338,0.810515,0.230775,0.000000,0.000000,0.000000,-1,-0.308928,0.109868,-0.048644,0.041466,0.052049,-0.325670
"2018-06-07 00:58:20.754 +0000",1528333100.753930,1.980331,-0.945285,1.409389,0.537093,0.810664,0.233140,0.000000,0.000000,0.000000,-1,-0.281566,-0.014665,-0.177071,-0.144622,0.073583,-0.415635
"2018-06-07 00:58:20.764 +0000",1528333100.764004,1.985168,-0.946004,1.413837,0.535425,0.811084,0.235501,0.000000,0.000000,0.000000,-1,-0.189482,0.164432,-0.154172,-0.006098,0.065594,-0.301663
"2018-06-07 00:58:20.774 +0000",1528333100.774078,1.989953,-0.946148,1.417642,0.534186,0.811169,0.238013,0.000000,0.000000,0.000000,-1,-0.206779,0.152034,-0.088554,0.049356,0.079502,-0.264990
"2018-06-07 00:58:20.784 +0000",1528333100.784153,1.994089,-0.945588,1.421586,0.533611,0.810841,0.240407,0.000000,0.000000,0.000000,-1,-0.235537,0.077049,-0.027395,0.029835,0.032283,-0.327534
"2018-06-07 00:58:20.794 +0000",1528333100.794227,1.997641,-0.944744,1.425086,0.533377,0.810347,0.242584,0.000000,0.000000,0.000000,-1,-0.205188,0.072680,-0.012418,-0.012457,-0.045180,-0.372284
"2018-06-07 00:58:20.804 +0000",1528333100.804301,2.000359,-0.944455,1.427377,0.532928,0.810177,0.244130,0.000000,0.000000,0.000000,-1,-0.111603,0.093866,-0.028706,-0.034546,-0.085477,-0.376226
"2018-06-07 00:58:20.814 +0000",1528333100.814375,2.002894,-0.944124,1.428498,0.532551,0.809983,0.245592,0.000000,0.000000,0.000000,-1,-0.064737,0.190433,0.011267,0.035457,-0.111512,-0.341830
"2018-06-07 00:58:20.824 +0000",1528333100.824450,2.006253,-0.943929,1.429252,0.531866,0.809869,0.247447,0.000000,0.000000,0.000000,-1,-0.041592,0.297056,-0.006762,0.063288,-0.156778,-0.315836
"2018-06-07 00:58:20.835 +0000",1528333100.834524,2.010741,-0.943906,1.430101,0.530767,0.809856,0.249839,0.000000,0.000000,0.000000,-1,-0.051000,0.403594,-0.025792,0.091639,-0.174739,-0.331321
"2018-06-07 00:58:20.845 +0000",1528333100.844598,2.016378,-0.944119,1.431698,0.529194,0.809981,0.252752,0.000000,0.000000,0.000000,-1,-0.085310,0.424558,-0.074056,0.128581,-0.189085,-0.336477
"2018-06-07 00:58:20.855 +0000",1528333100.854672,2.022132,-0.944814,1.435315,0.527225,0.810388,0.255548,0.000000,0.000000,0.000000,-1,-0.195595,0.216140,-0.185202,0.097393,-0.165338,-0.387597
"2018-06-07 00:58:20.865 +0000",1528333100.864747,2.029056,-0.945755,1.444001,0.524758,0.810939,0.258854,0.000000,0.000000,0.000000,-1,-0.500774,-0.085923,-0.345653,0.079719,-0.170894,-0.431401
"2018-06-07 00:58:20.875 +0000",1528333100.874821,2.039686,-0.945768,1.460360,0.521967,0.810947,0.264413,0.000000,0.000000,0.000000,-1,-0.976672,-0.311885,-0.442028,0.147665,-0.228290,-0.418619
"2018-06-07 00:58:20.885 +0000",1528333100.884895,2.055386,-0.943406,1.485024,0.519446,0.809562,0.273467,0.000000,0.000000,0.000000,-1,-1.523754,-0.460506,-0.442283,0.244668,-0.232063,-0.398925
"2018-06-07 00:58:20.895 +0000",1528333100.894969,2.076287,-0.937121,1.516727,0.518059,0.805857,0.286721,0.000000,0.000000,0.000000,-1,-2.050104,-0.425272,-0.292536,0.292763,-0.134699,-0.413278
"2018-06-07 00:58:20.905 +0000",1528333100.905044,2.103776,-0.927308,1.551805,0.516768,0.800008,0.304856,0.000000,0.000000,0.000000,-1,-2.338390,0.079418,-0.153801,0.199342,0.024608,-0.367630
"2018-06-07 00:58:20.915 +0000",1528333100.915118,2.136623,-0.917862,1.585834,0.512834,0.794305,0.325699,0.000000,0.000000,0.000000,-1,-2.122270,0.696625,-0.334285,-0.040483,0.264274,-0.277573
"2018-06-07 00:58:20.925 +0000",1528333100.925192,2.165606,-0.914383,1.611898,0.505466,0.792186,0.341970,0.000000,0.000000,0.000000,-1,-1.261995,0.775976,-0.624297,-0.100849,0.415013,-0.201894
"2018-06-07 00:58:20.935 +0000",1528333100.935266,2.182085,-0.916486,1.626848,0.498397,0.793468,0.349296,0.000000,0.000000,0.000000,-1,-0.464759,0.391070,-0.717596,0.049622,0.122288,-0.210518
"2018-06-07 00:58:20.945 +0000",1528333100.945341,2.195424,-0.922094,1.638750,0.490077,0.796869,0.353305,0.000000,0.000000,0.000000,-1,-0.219623,0.399137,-0.908523,0.070547,0.143088,-0.258044
"2018-06-07 00:58:20.955 +0000",1528333100.955415,2.207744,-0.928060,1.649613,0.481857,0.800458,0.356482,0.000000,0.000000,0.000000,-1,-0.174054,0.341798,-0.817365,0.174805,0.188738,-0.354407
"2018-06-07 00:58:20.965 +0000",1528333100.965489,2.218088,-0.932665,1.659081,0.475198,0.803210,0.359220,0.000000,0.000000,0.000000,-1,-0.163447,0.262230,-0.684241,0.152930,0.054700,-0.405119
"2018-06-07 00:58:20.976 +0000",1528333100.975563,2.227032,-0.938819,1.665446,0.468040,0.806861,0.360434,0.000000,0.000000,0.000000,-1,0.174924,0.432405,-0.726471,0.043236,0.067941,-0.340475
"2018-06-07 00:58:20.986 +0000",1528333100.985638,2.233662,-0.947039,1.667170,0.460396,0.811690,0.359435,0.000000,0.000000,0.000000,-1,0.478072,0.541766,-0.688123,0.072852,0.026567,-0.266555
"2018-06-07 00:58:20.996 +0000",1528333100.995712,2.239622,-0.954741,1.666399,0.453328,0.816164,0.358285,0.000000,0.000000,0.000000,-1,0.506111,0.712437,-0.530647,0.035442,0.008330,-0.247506
"2018-06-07 00:58:21.006 +0000",1528333101.005786,2.246790,-0.961147,1.664063,0.446660,0.819849,0.358247,0.000000,0.000000,0.000000,-1,0.495290,0.946705,-0.381502,-0.014486,0.029593,-0.208955
"2018-06-07 00:58:21.016 +0000",1528333101.015860,2.253595,-0.966381,1.661173,0.440877,0.822834,0.358566,0.000000,0.000000,0.000000,-1,0.435743,0.879143,-0.278300,-0.007939,0.010235,-0.310104
"2018-06-07 00:58:21.026 +0000",1528333101.025934,2.258968,-0.970784,1.658117,0.436141,0.825329,0.358625,0.000000,0.000000,0.000000,-1,0.408058,0.764634,-0.215107,0.041459,0.037434,-0.429136
"2018-06-07 00:58:21.036 +0000",1528333101.036009,2.264157,-0.974627,1.654066,0.431832,0.827493,0.358853,0.000000,0.000000,0.000000,-1,0.417806,0.887263,-0.131947,0.141288,0.066794,-0.356167
"2018-06-07 00:58:21.046 +0000",1528333101.046082,2.270428,-0.978089,1.650096,0.427379,0.829431,0.359707,0.000000,0.000000,0.000000,-1,0.375702,0.954095,-0.128430,0.152272,0.078726,-0.292904
"2018-06-07 00:58:21.056 +0000",1528333101.056156,2.277547,-0.981540,1.647146,0.422628,0.831354,0.360880,0.000000,0.000000,0.000000,-1,0.338166,0.958535,-0.164903,0.143610,0.060537,-0.381021
"2018-06-07 00:58:21.066 +0000",1528333101.066230,2.285752,-0.984884,1.644560,0.417551,0.833208,0.362511,0.000000,0.000000,0.000000,-1,0.320073,1.058304,-0.146285,0.162069,0.004118,-0.385872
"2018-06-07 00:58:21.076 +0000",1528333101.076305,2.294820,-0.987228,1.641460,0.412783,0.834502,0.364987,0.000000,0.000000,0.000000,-1,0.272886,1.190541,-0.036077,0.154371,-0.045775,-0.321576
"2018-06-07 00:58:21.086 +0000",1528333101.086379,2.255679,-0.999770,1.595994,0.418610,0.841347,0.341907,0.000000,0.000000,0.000000,-1,0.398394,1.358646,0.012529,0.048645,-0.049446,-0.258701
"2018-06-07 00:58:21.096 +0000",1528333101.096453,2.206035,-1.014920,1.540335,0.424751,0.849439,0.313113,0.000000,0.000000,0.000000,-1,0.459993,1.342139,0.062895,0.014352,-0.003034,-0.234729
"2018-06-07 00:58:21.107 +0000",1528333101.106527,2.211743,-1.016202,1.533496,0.422084,0.850114,0.314881,0.000000,0.000000,0.000000,-1,0.313802,1.053862,0.123703,0.048070,0.031340,-0.249497
"2018-06-07 00:58:21.117 +0000",1528333101.116602,2.215560,-1.015909,1.529828,0.421077,0.849960,0.316639,0.000000,0.000000,0.000000,-1,0.082062,0.552584,0.135683,0.020695,0.051560,-0.313221
"2018-06-07 00:58:21.127 +0000",1528333101.126676,2.154617,-1.007912,1.476035,0.445238,0.845720,0.294143,0.000000,0.000000,0.000000,-1,-0.065239,0.137437,0.083182,-0.011964,0.047347,-0.350998
"2018-06-07 00:58:21.137 +0000",1528333101.136750,2.154784,-1.006590,1.476879,0.446122,0.845013,0.294834,0.000000,0.000000,0.000000,-1,-0.122852,-0.099880,0.092305,0.071151,0.006382,-0.299244
"2018-06-07 00:58:21.147 +0000",1528333101.146824,2.153783,-1.004511,1.478015,0.447882,0.843900,0.295354,0.000000,0.000000,0.000000,-1,-0.178892,-0.219957,0.155547,0.159555,-0.057828,-0.248860
"2018-06-07 00:58:21.157 +0000",1528333101.156899,2.151676,-1.001793,1.478861,0.450419,0.842438,0.295667,0.000000,0.000000,0.000000,-1,-0.180324,-0.294857,0.214492,0.157232,-0.149537,-0.241971
"2018-06-07 00:58:21.167 +0000",1528333101.166973,2.148937,-0.998785,1.478764,0.453347,0.840814,0.295816,0.000000,0.000000,0.000000,-1,-0.162924,-0.242337,0.267312,0.110404,-0.146279,-0.258249
"2018-06-07 00:58:21.177 +0000",1528333101.177047,2.148352,-0.994855,1.479708,0.456286,0.838680,0.297352,0.000000,0.000000,0.000000,-1,-0.285138,-0.104491,0.299187,0.090940,-0.019100,-0.258229
"2018-06-07 00:58:21.187 +0000",1528333101.187121,2.150051,-0.991424,1.481820,0.458185,0.836807,0.299700,0.000000,0.000000,0.000000,-1,-0.259223,0.027768,0.190872,0.022223,-0.032058,-0.211657
"2018-06-07 00:58:21.197 +0000",1528333101.197196,2.152521,-0.990354,1.482907,0.458191,0.836220,0.301323,0.000000,0.000000,0.000000,-1,-0.047923,0.199271,0.009103,-0.033859,-0.063836,-0.196861
"2018-06-07 00:58:21.207 +0000",1528333101.207270,2.155138,-0.991648,1.481841,0.456498,0.836929,0.301924,0.000000,0.000000,0.000000,-1,0.164864,0.407786,-0.097267,0.006179,-0.068023,-0.174940
"2018-06-07 00:58:21.217 +0000",1528333101.217344,2.157890,-0.993612,1.479395,0.454296,0.838003,0.302268,0.000000,0.000000,0.000000,-1,0.227497,0.475846,-0.055262,0.127461,-0.026418,-0.172370
"2018-06-07 00:58:21.227 +0000",1528333101.227418,2.158114,-0.994920,1.475912,0.453316,0.838715,0.301762,0.000000,0.000000,0.000000,-1,0.227322,0.256083,-0.005346,0.202370,-0.074738,-0.290211
"2018-06-07 00:58:21.237 +0000",1528333101.237493,2.157859,-0.996258,1.473060,0.452458,0.839444,0.301024,0.000000,0.000000,0.000000,-1,0.185448,0.204421,-0.017232,0.205944,0.025257,-0.302504
"2018-06-07 00:58:21.248 +0000",1528333101.247567,2.157680,-0.996411,1.470638,0.452405,0.839526,0.300873,0.000000,0.000000,0.000000,-1,0.093253,0.183949,0.091560,0.281482,-0.010943,-0.229538
"2018-06-07 00:58:21.258 +0000",1528333101.257641,2.157796,-0.995081,1.469016,0.453299,0.838803,0.301543,0.000000,0.000000,0.000000,-1,-0.033340,0.121788,0.171266,0.207743,-0.042218,-0.280791
"2018-06-07 00:58:21.268 +0000",1528333101.267715,2.094185,-0.997806,1.415494,0.469569,0.840284,0.270974,0.000000,0.000000,0.000000,-1,-0.079015,-0.035105,0.120361,0.045247,-0.047315,-0.304528
"2018-06-07 00:58:21.278 +0000",1528333101.277790,2.058576,-1.008019,1.386114,0.471312,0.845776,0.250050,0.000000,0.000000,0.000000,-1,0.040463,-0.089259,0.024198,-0.023055,-0.046689,-0.276158
"2018-06-07 00:58:21.288 +0000",1528333101.287864,2.026588,-1.008246,1.358917,0.478896,0.845897,0.234764,0.000000,0.000000,0.000000,-1,0.177130,-0.061353,0.004604,0.085664,-0.091381,-0.204826
"2018-06-07 00:58:21.298 +0000",1528333101.297938,1.991574,-0.997648,1.328516,0.494976,0.840198,0.221504,0.000000,0.000000,0.000000,-1,0.256999,-0.028157,-0.005163,0.148075,-0.116382,-0.158928
"2018-06-07 00:58:21.308 +0000",1528333101.308012,1.938645,-0.982871,1.283143,0.517531,0.832093,0.199451,0.000000,0.000000,0.000000,-1,0.276336,-0.020180,-0.062193,0.121324,-0.075090,-0.137302
"2018-06-07 00:58:21.318 +0000",1528333101.318087,1.898765,-0.978461,1.248016,0.528540,0.829639,0.179839,0.000000,0.000000,0.000000,-1,0.299061,0.101590,-0.027470,0.125467,-0.070499,-0.145767
"2018-06-07 00:58:21.328 +0000",1528333101.328161,1.872404,-0.964998,1.222940,0.543714,0.822048,0.169148,0.000000,0.000000,0.000000,-1,0.318214,0.206646,0.064221,0.012317,-0.076091,-0.126851
"2018-06-07 00:58:21.338 +0000",1528333101.338235,1.871242,-0.967092,1.217312,0.542264,0.823238,0.168007,0.000000,0.000000,0.000000,-1,0.378822,0.406590,-0.193491,-0.173002,-0.040859,-0.123237
"2018-06-07 00:58:21.348 +0000",1528333101.348309,1.873249,-0.972208,1.212346,0.537898,0.826132,0.167838,0.000000,0.000000,0.000000,-1,0.425638,0.654748,-0.439199,-0.091381,0.030527,-0.067817
"2018-06-07 00:58:21.358 +0000",1528333101.358384,1.857269,-0.985883,1.191905,0.529625,0.833760,0.156014,0.000000,0.000000,0.000000,-1,0.412351,0.684566,-0.490713,0.122337,0.013881,-0.034646
"2018-06-07 00:58:21.368 +0000",1528333101.368458,1.845662,-0.988289,1.174917,0.529467,0.835086,0.149312,0.000000,0.000000,0.000000,-1,0.366701,0.739665,-0.571121,0.145475,0.022565,-0.072896
"2018-06-07 00:58:21.379 +0000",1528333101.378532,1.838868,-0.984724,1.161679,0.533337,0.833119,0.146499,0.000000,0.000000,0.000000,-1,0.309528,0.807354,-0.520238,0.150287,0.044520,-0.071059
"2018-06-07 00:58:21.389 +0000",1528333101.388606,1.845385,-0.989846,1.158661,0.528256,0.835942,0.148812,0.000000,0.000000,0.000000,-1,0.288606,0.934177,-0.410105,0.141926,0.020916,-0.035882
"2018-06-07 00:58:21.399 +0000",1528333101.398681,1.852696,-0.992802,1.155798,0.524778,0.837560,0.151982,0.000000,0.000000,0.000000,-1,0.206978,0.951638,-0.177528,0.112597,-0.062032,-0.071370
"2018-06-07 00:58:21.409 +0000",1528333101.408755,1.859218,-0.994329,1.153544,0.522549,0.838393,0.155038,0.000000,0.000000,0.000000,-1,0.146777,0.782145,-0.113345,-0.088284,-0.109542,-0.168343
"2018-06-07 00:58:21.419 +0000",1528333101.418829,1.864805,-0.996590,1.153326,0.519859,0.839624,0.157405,0.000000,0.000000,0.000000,-1,0.043075,0.497015,-0.251619,-0.245552,-0.012994,-0.186244
"2018-06-07 00:58:21.429 +0000",1528333101.428903,1.872364,-0.999878,1.158526,0.516015,0.841405,0.160509,0.000000,0.000000,0.000000,-1,-0.258869,0.269694,-0.432298,-0.198449,0.042308,-0.127977
"2018-06-07 00:58:21.439 +0000",1528333101.438978,1.883357,-1.003659,1.169315,0.511189,0.843442,0.165192,0.000000,0.000000,0.000000,-1,-0.470048,0.175189,-0.549334,-0.083683,0.023623,-0.067032
"2018-06-07 00:58:21.449 +0000",1528333101.449052,1.894901,-1.007353,1.181073,0.506291,0.845421,0.170089,0.000000,0.000000,0.000000,-1,-0.470139,0.149877,-0.534349,-0.001042,0.035560,-0.001647
"2018-06-07 00:58:21.459 +0000",1528333101.459126,1.905755,-1.010857,1.192512,0.501614,0.847287,0.174599,0.000000,0.000000,0.000000,-1,-0.456568,0.108132,-0.518366,-0.005978,0.008960,-0.034173
"2018-06-07 00:58:21.469 +0000",1528333101.469200,1.916309,-1.014231,1.203756,0.497051,0.849075,0.178914,0.000000,0.000000,0.000000,-1,-0.436589,0.110397,-0.521632,-0.057765,-0.004562,-0.083714
"2018-06-07 00:58:21.479 +0000",1528333101.479275,1.926145,-1.017245,1.212811,0.492865,0.850663,0.182903,0.000000,0.000000,0.000000,-1,-0.313794,0.245210,-0.389217,0.030130,-0.050675,-0.068371
"2018-06-07 00:58:21.489 +0000",1528333101.489349,1.934145,-1.018594,1.219497,0.490313,0.851371,0.186432,0.000000,0.000000,0.000000,-1,-0.272045,0.213855,-0.214074,0.069593,-0.081398,-0.019715
"2018-06-07 00:58:21.499 +0000",1528333101.499423,1.940367,-1.019510,1.227027,0.488417,0.851851,0.189197,0.000000,0.000000,0.000000,-1,-0.370119,-0.141921,-0.255759,-0.032988,-0.004165,-0.026356
"2018-06-07 00:58:21.509 +0000",1528333101.509497,1.945179,-1.023608,1.243690,0.484247,0.853991,0.190268,0.000000,0.000000,0.000000,-1,-0.792578,-1.279856,-0.906715,-0.215204,-0.007067,0.012491
"2018-06-07 00:58:21.520 +0000",1528333101.519572,1.952405,-1.028995,1.273587,0.478583,0.856781,0.192045,0.000000,0.000000,0.000000,-1,-1.334302,-1.828725,-1.008182,-0.552817,0.228363,0.139101
"2018-06-07 00:58:21.530 +0000",1528333101.529646,1.964142,-1.032753,1.304445,0.473319,0.858713,0.196414,0.000000,0.000000,0.000000,-1,-1.250448,-1.282186,-0.916430,-0.260413,0.446249,-0.363253
"2018-06-07 00:58:21.540 +0000",1528333101.539720,1.978209,-1.036052,1.326650,0.467906,0.860399,0.201929,0.000000,0.000000,0.000000,-1,-0.792122,-0.231312,-0.685310,-0.021708,0.257002,-0.606363
"2018-06-07 00:58:21.550 +0000",1528333101.549794,1.991576,-1.038366,1.337452,0.463346,0.861576,0.207351,0.000000,0.000000,0.000000,-1,-0.264201,0.584285,-0.323806,0.177828,0.143124,-0.281600
"2018-06-07 00:58:21.560 +0000",1528333101.559869,2.001237,-1.038783,1.337928,0.460995,0.861788,0.211668,0.000000,0.000000,0.000000,-1,0.025241,0.964249,0.098290,0.250278,-0.127733,-0.058881
"2018-06-07 00:58:21.570 +0000",1528333101.569943,2.008828,-1.037828,1.333185,0.460120,0.861303,0.215510,0.000000,0.000000,0.000000,-1,0.227375,1.301685,0.132153,0.031396,-0.357641,0.006047
"2018-06-07 00:58:21.580 +0000",1528333101.580017,2.019161,-1.036941,1.332358,0.458557,0.860852,0.220584,0.000000,0.000000,0.000000,-1,-0.124851,0.894694,0.093053,0.107086,0.210117,-0.045963
"2018-06-07 00:58:21.590 +0000",1528333101.590091,2.027105,-1.033457,1.337409,0.459480,0.859073,0.225540,0.000000,0.000000,0.000000,-1,-0.424750,0.251029,0.244609,0.197746,0.223065,-0.307251
"2018-06-07 00:58:21.600 +0000",1528333101.600166,2.034608,-1.027856,1.342005,0.462071,0.856193,0.231130,0.000000,0.000000,0.000000,-1,-0.458871,0.402752,0.429064,0.092541,0.165810,-0.171941
"2018-06-07 00:58:21.610 +0000",1528333101.610240,2.040358,-1.021377,1.344875,0.465671,0.852828,0.236289,0.000000,0.000000,0.000000,-1,-0.394468,0.292706,0.536160,0.175091,0.049379,-0.052283
"2018-06-07 00:58:21.620 +0000",1528333101.620314,2.042067,-1.014831,1.343343,0.470230,0.849392,0.239613,0.000000,0.000000,0.000000,-1,-0.146322,0.321525,0.634635,0.162674,-0.054714,-0.022664
"2018-06-07 00:58:21.630 +0000",1528333101.630388,2.038413,-1.008905,1.335977,0.475588,0.846249,0.240158,0.000000,0.000000,0.000000,-1,0.167212,0.212281,0.715349,0.175490,-0.067990,-0.083939
"2018-06-07 00:58:21.640 +0000",1528333101.640463,2.028582,-1.004948,1.323358,0.480926,0.844134,0.236950,0.000000,0.000000,0.000000,-1,0.501170,0.036924,0.606509,0.143051,-0.130908,-0.143703
"2018-06-07 00:58:21.651 +0000",1528333101.650537,2.016560,-1.004116,1.310372,0.484374,0.843688,0.231454,0.000000,0.000000,0.000000,-1,0.599411,-0.149167,0.283049,-0.055068,-0.123946,-0.074425
"2018-06-07 00:58:21.661 +0000",1528333101.660611,2.006561,-1.005789,1.304137,0.485384,0.844584,0.226003,0.000000,0.000000,0.000000,-1,0.264463,-0.629392,-0.082224,-0.211489,-0.116420,-0.078130
"2018-06-07 00:58:21.671 +0000",1528333101.670685,1.997939,-1.008733,1.307054,0.485049,0.846157,0.220779,0.000000,0.000000,0.000000,-1,-0.129511,-1.228516,-0.405758,-0.225421,0.043674,-0.116439
"2018-06-07 00:58:21.681 +0000",1528333101.680760,1.992752,-1.011887,1.317804,0.483751,0.847834,0.217166,0.000000,0.000000,0.000000,-1,-0.475923,-1.483612,-0.536936,-0.098497,0.335867,-0.126391
"2018-06-07 00:58:21.691 +0000",1528333101.690834,1.991387,-1.013751,1.332685,0.482603,0.848821,0.215859,0.000000,0.000000,0.000000,-1,-0.659494,-1.279177,-0.456323,0.063341,0.391307,-0.169427
"2018-06-07 00:58:21.701 +0000",1528333101.700908,1.994813,-1.015160,1.345200,0.480770,0.849565,0.217019,0.000000,0.000000,0.000000,-1,-0.478008,-0.484168,-0.388812,0.034138,0.523085,-0.136544
"2018-06-07 00:58:21.711 +0000",1528333101.710982,2.000857,-1.017415,1.352396,0.477707,0.850752,0.219122,0.000000,0.000000,0.000000,-1,-0.168008,0.133469,-0.347926,-0.022476,0.524263,-0.122808
"2018-06-07 00:58:21.721 +0000",1528333101.721057,2.007061,-1.020413,1.352733,0.474024,0.852324,0.221002,0.000000,0.000000,0.000000,-1,0.214047,0.740097,-0.251304,-0.024958,0.369417,0.001944
"2018-06-07 00:58:21.731 +0000",1528333101.731131,2.010000,-1.023233,1.344750,0.471195,0.853796,0.221372,0.000000,0.000000,0.000000,-1,0.575216,0.984805,0.011038,-0.023716,0.181040,-0.020535
"2018-06-07 00:58:21.741 +0000",1528333101.741205,2.005710,-1.022272,1.329507,0.472885,0.853295,0.219694,0.000000,0.000000,0.000000,-1,0.690838,0.828015,0.566426,0.018112,0.078559,-0.181913
"2018-06-07 00:58:21.751 +0000",1528333101.751279,1.993995,-1.019866,1.309802,0.477297,0.852038,0.214981,0.000000,0.000000,0.000000,-1,0.868369,0.372711,0.619553,-0.126360,-0.186404,-0.262940
"2018-06-07 00:58:21.761 +0000",1528333101.761354,1.978348,-1.018685,1.290952,0.481526,0.851419,0.207886,0.000000,0.000000,0.000000,-1,0.816326,-0.016513,0.469025,-0.196171,-0.118478,-0.226639
"2018-06-07 00:58:21.771 +0000",1528333101.771428,1.965254,-1.017531,1.275363,0.485113,0.850813,0.201941,0.000000,0.000000,0.000000,-1,0.670620,0.013994,0.427497,0.020945,-0.118803,-0.031897
"2018-06-07 00:58:21.782 +0000",1528333101.781502,1.953809,-1.015020,1.260292,0.489372,0.849491,0.197173,0.000000,0.000000,0.000000,-1,0.619900,0.208618,0.579846,0.059761,-0.415379,-0.240081
"2018-06-07 00:58:21.792 +0000",1528333101.791576,1.941554,-1.013528,1.241004,0.492933,0.848703,0.191620,0.000000,0.000000,0.000000,-1,0.984040,0.473627,0.452856,0.010683,-0.530084,-0.228089
"2018-06-07 00:58:21.802 +0000",1528333101.801651,1.927615,-1.016747,1.220314,0.492993,0.850401,0.183775,0.000000,0.000000,0.000000,-1,1.130702,0.288302,-0.021302,-0.115079,-0.466093,-0.156279
"2018-06-07 00:58:21.812 +0000",1528333101.811725,1.915383,-1.020735,1.204113,0.492008,0.852493,0.176584,0.000000,0.000000,0.000000,-1,0.820216,0.111930,-0.053374,-0.097904,-0.328735,0.059408
"2018-06-07 00:58:21.822 +0000",1528333101.821799,1.905674,-1.022150,1.195481,0.492559,0.853231,0.171403,0.000000,0.000000,0.000000,-1,0.371488,-0.360634,0.035558,0.039957,-0.149679,0.058288
"2018-06-07 00:58:21.832 +0000",1528333101.831873,1.897205,-1.022022,1.192337,0.494097,0.853164,0.167260,0.000000,0.000000,0.000000,-1,0.073114,-0.607535,0.076397,0.121015,0.054550,-0.017694
"2018-06-07 00:58:21.842 +0000",1528333101.841948,1.892922,-1.019957,1.194789,0.496479,0.852085,0.165700,0.000000,0.000000,0.000000,-1,-0.246908,-0.637375,0.173851,0.128994,0.183239,0.016582
"2018-06-07 00:58:21.852 +0000",1528333101.852022,1.890668,-1.016642,1.198306,0.499529,0.850346,0.165467,0.000000,0.000000,0.000000,-1,-0.268891,-0.466627,0.279812,0.158110,0.237499,-0.047898
"2018-06-07 00:58:21.862 +0000",1528333101.862096,1.880629,-1.010880,1.193823,0.505823,0.847300,0.161936,0.000000,0.000000,0.000000,-1,-0.235988,-0.383448,0.361727,0.128500,0.149679,-0.072885
"2018-06-07 00:58:21.872 +0000",1528333101.872170,1.878939,-1.006527,1.196150,0.509606,0.844980,0.162198,0.000000,0.000000,0.000000,-1,-0.253983,-0.359411,0.376898,0.059898,0.072150,-0.073849
"2018-06-07 00:58:21.882 +0000",1528333101.882245,1.876047,-1.002651,1.197133,0.513192,0.842901,0.161706,0.000000,0.000000,0.000000,-1,-0.085418,-0.355368,0.309833,0.000144,0.000758,-0.121972
"2018-06-07 00:58:21.892 +0000",1528333101.892319,1.864844,-1.006918,1.179112,0.511525,0.845188,0.154903,0.000000,0.000000,0.000000,-1,1.492197,0.738101,-0.237026,-0.000691,-0.285267,-0.085079
"2018-06-07 00:58:21.902 +0000",1528333101.902393,1.831106,-1.012022,1.126376,0.512284,0.847905,0.136449,0.000000,0.000000,0.000000,-1,2.813203,1.320904,0.142422,0.027892,-0.464772,0.102077
"2018-06-07 00:58:21.912 +0000",1528333101.912467,1.770633,-1.016444,1.059733,0.515915,0.850241,0.104493,0.000000,0.000000,0.000000,-1,3.789254,-1.224370,0.418904,-0.282593,0.145364,-0.187547
"2018-06-07 00:58:21.923 +0000",1528333101.922542,1.623098,-1.020326,0.953138,0.522370,0.852279,0.027346,0.000000,0.000000,0.000000,-1,6.244723,-7.368740,0.248044,-0.191804,0.622773,-0.789400
"2018-06-07 00:58:21.933 +0000",1528333101.932616,1.469851,-1.017769,0.856222,0.522589,0.850938,-0.052933,0.000000,0.000000,0.000000,-1,4.012553,-5.653964,0.063452,0.078409,0.973799,-0.640259
"2018-06-07 00:58:21.943 +0000",1528333101.942690,1.430747,-1.019838,0.819542,0.518376,0.852023,-0.073077,0.000000,0.000000,0.000000,-1,1.083365,0.643038,-0.876375,0.060984,-0.328387,1.496096
"2018-06-07 00:58:21.953 +0000",1528333101.952764,1.426117,-1.026746,0.805580,0.512195,0.855619,-0.074626,0.000000,0.000000,0.000000,-1,0.492761,0.414392,-0.670240,0.248516,-0.380766,0.015925
"2018-06-07 00:58:21.963 +0000",1528333101.962838,1.420389,-1.030056,0.801979,0.508957,0.857328,-0.077133,0.000000,0.000000,0.000000,-1,-0.006380,-0.383466,-0.268051,0.270599,0.313159,-0.605148
"2018-06-07 00:58:21.973 +0000",1528333101.972913,1.423680,-1.032031,0.811535,0.507532,0.858343,-0.075210,0.000000,0.000000,0.000000,-1,-0.669354,-0.506816,-0.088334,0.077032,0.101435,0.145217
"2018-06-07 00:58:21.983 +0000",1528333101.982987,1.429207,-1.030877,0.827167,0.508921,0.857750,-0.072543,0.000000,0.000000,0.000000,-1,-1.205681,-0.692088,0.019919,-0.071466,0.041359,0.104724
"2018-06-07 00:58:21.993 +0000",1528333101.993061,1.445923,-1.031818,0.857088,0.509261,0.858234,-0.063926,0.000000,0.000000,0.000000,-1,-1.582399,-0.974692,0.145811,-0.147948,-0.053256,-0.033776
"2018-06-07 00:58:22.003 +0000",1528333102.003135,1.459254,-1.031484,0.886105,0.510353,0.858062,-0.057163,0.000000,0.000000,0.000000,-1,-1.383165,-1.201674,0.216762,-0.149055,-0.270507,-0.051250
"2018-06-07 00:58:22.013 +0000",1528333102.013210,1.464243,-1.031151,0.905196,0.510916,0.857891,-0.054647,0.000000,0.000000,0.000000,-1,-0.822457,-1.076621,0.086765,-0.179175,-0.359936,-0.081248
"2018-06-07 00:58:22.023 +0000",1528333102.023284,1.457858,-1.030129,0.908168,0.511427,0.857365,-0.058006,0.000000,0.000000,0.000000,-1,-0.278973,-0.564655,-0.173297,-0.174345,-0.219151,-0.070305
"2018-06-07 00:58:22.033 +0000",1528333102.033358,1.454729,-1.031737,0.901043,0.509874,0.858192,-0.059447,0.000000,0.000000,0.000000,-1,0.580249,0.620099,-0.189028,0.017287,-0.108360,-0.081468
"2018-06-07 00:58:22.043 +0000",1528333102.043432,1.448793,-1.031881,0.879186,0.509389,0.858266,-0.062457,0.000000,0.000000,0.000000,-1,1.254494,1.429740,-0.143040,0.185771,-0.060307,-0.156049
"2018-06-07 00:58:22.054 +0000",1528333102.053507,1.437493,-1.032947,0.850835,0.507744,0.858812,-0.068088,0.000000,0.000000,0.000000,-1,1.426616,1.116069,-0.360551,0.079002,-0.131289,-0.199582
"2018-06-07 00:58:22.064 +0000",1528333102.063581,1.408059,-1.034178,0.817157,0.504476,0.859442,-0.082830,0.000000,0.000000,0.000000,-1,1.373417,-0.255083,-0.649464,-0.038839,-0.112860,-0.331691
"2018-06-07 00:58:22.074 +0000",1528333102.073655,1.375401,-1.038967,0.791182,0.497460,0.861881,-0.098457,0.000000,0.000000,0.000000,-1,1.124727,-1.206233,-0.700066,0.022072,0.041043,-0.346565
"2018-06-07 00:58:22.084 +0000",1528333102.083729,1.345493,-1.043865,0.773542,0.490171,0.864355,-0.112345,0.000000,0.000000,0.000000,-1,0.636233,-1.507486,-0.651419,0.148699,0.089915,-0.014837
"2018-06-07 00:58:22.094 +0000",1528333102.093804,1.322109,-1.049023,0.765243,0.483084,0.866937,-0.122676,0.000000,0.000000,0.000000,-1,0.159947,-1.646367,-0.571135,0.146204,0.145759,0.155361
"2018-06-07 00:58:22.104 +0000",1528333102.103878,1.299887,-1.052045,0.763304,0.477712,0.868439,-0.132678,0.000000,0.000000,0.000000,-1,-0.415682,-2.035706,-0.517167,0.008128,0.081223,0.136096
"2018-06-07 00:58:22.114 +0000",1528333102.113952,1.284766,-1.057818,0.772907,0.470833,0.871287,-0.138469,0.000000,0.000000,0.000000,-1,-0.617048,-2.362883,-0.378899,-0.134682,-0.071314,0.051281
"2018-06-07 00:58:22.124 +0000",1528333102.124026,1.268788,-1.061334,0.779382,0.465633,0.873007,-0.145062,0.000000,0.000000,0.000000,-1,-0.311028,-2.023588,-0.195753,-0.221279,-0.239096,0.017514
"2018-06-07 00:58:22.134 +0000",1528333102.134101,1.254921,-1.062642,0.780526,0.462491,0.873644,-0.151150,0.000000,0.000000,0.000000,-1,-0.041577,-1.287789,-0.086666,-0.280164,-0.274324,-0.019779
"2018-06-07 00:58:22.144 +0000",1528333102.144175,1.238822,-1.060152,0.774936,0.462053,0.872430,-0.159284,0.000000,0.000000,0.000000,-1,0.074289,-0.950671,-0.034319,-0.260530,-0.304711,-0.081667
"2018-06-07 00:58:22.154 +0000",1528333102.154249,1.227851,-1.059728,0.772616,0.460625,0.872223,-0.164468,0.000000,0.000000,0.000000,-1,0.125325,-0.863995,0.010993,-0.152596,-0.337295,-0.170417
"2018-06-07 00:58:22.164 +0000",1528333102.164323,1.218981,-1.059411,0.772213,0.459408,0.872067,-0.168643,0.000000,0.000000,0.000000,-1,-0.024969,-0.852383,0.022127,-0.035092,-0.315854,-0.084287
"2018-06-07 00:58:22.174 +0000",1528333102.174397,1.213878,-1.060252,0.776688,0.457854,0.872479,-0.170729,0.000000,0.000000,0.000000,-1,-0.292462,-0.903464,-0.016132,0.075715,-0.120373,0.009993
"2018-06-07 00:58:22.184 +0000",1528333102.184472,1.205001,-1.060196,0.778774,0.456367,0.872451,-0.174804,0.000000,0.000000,0.000000,-1,-0.401237,-0.963352,-0.205370,0.144525,0.298569,0.045791
"2018-06-07 00:58:22.195 +0000",1528333102.194546,1.202532,-1.065313,0.786788,0.451762,0.874940,-0.174320,0.000000,0.000000,0.000000,-1,-0.600625,-0.936877,-0.368335,0.171437,0.474974,0.002918
"2018-06-07 00:58:22.205 +0000",1528333102.204620,1.201346,-1.071940,0.797370,0.446138,0.878130,-0.172759,0.000000,0.000000,0.000000,-1,-0.732196,-1.078508,-0.451270,0.110106,0.151182,-0.058961
"2018-06-07 00:58:22.215 +0000",1528333102.214694,1.199769,-1.079583,0.809118,0.439597,0.881761,-0.171023,0.000000,0.000000,0.000000,-1,-0.811328,-1.224428,-0.523582,0.014535,-0.162935,-0.097745
"2018-06-07 00:58:22.225 +0000",1528333102.224769,1.192899,-1.085392,0.817395,0.433644,0.884486,-0.172147,0.000000,0.000000,0.000000,-1,-0.851624,-1.316437,-0.599052,-0.052464,-0.249431,-0.080356
"2018-06-07 00:58:22.235 +0000",1528333102.234843,1.192424,-1.094648,0.830544,0.425936,0.888767,-0.169321,0.000000,0.000000,0.000000,-1,-0.931313,-1.160620,-0.636064,-0.074465,-0.137607,-0.077048
"2018-06-07 00:58:22.245 +0000",1528333102.244917,1.198945,-1.105177,0.849305,0.418289,0.893544,-0.163130,0.000000,0.000000,0.000000,-1,-1.268350,-0.959397,-0.676657,-0.027267,-0.211735,-0.032228
"2018-06-07 00:58:22.255 +0000",1528333102.254991,1.216196,-1.117790,0.877080,0.410439,0.899135,-0.151965,0.000000,0.000000,0.000000,-1,-1.699611,-0.734106,-0.759990,-0.016259,-0.297466,0.093952
"2018-06-07 00:58:22.265 +0000",1528333102.265066,1.231599,-1.129428,0.905526,0.402835,0.904168,-0.142134,0.000000,0.000000,0.000000,-1,-1.775075,-1.012633,-0.883251,-0.064472,-0.133919,0.020934
"2018-06-07 00:58:22.275 +0000",1528333102.275140,1.243109,-1.142715,0.932744,0.393035,0.909764,-0.133609,0.000000,0.000000,0.000000,-1,-1.424117,-1.421257,-0.851897,-0.025084,0.261318,-0.215756
"2018-06-07 00:58:22.285 +0000",1528333102.285214,1.252266,-1.154914,0.958711,0.383673,0.914760,-0.126520,0.000000,0.000000,0.000000,-1,-1.396217,-1.398365,-0.794886,0.065607,0.262669,-0.252097
"2018-06-07 00:58:22.295 +0000",1528333102.295288,1.268179,-1.166527,0.988985,0.375471,0.919390,-0.117225,0.000000,0.000000,0.000000,-1,-1.533659,-1.130145,-0.710966,0.030794,0.070173,-0.044580
"2018-06-07 00:58:22.305 +0000",1528333102.305363,1.281029,-1.175841,1.016932,0.368725,0.923014,-0.109939,0.000000,0.000000,0.000000,-1,-1.544709,-1.224357,-0.764997,-0.005978,-0.056009,-0.049332
"2018-06-07 00:58:22.315 +0000",1528333102.315437,1.294857,-1.187375,1.046255,0.359941,0.927390,-0.101922,0.000000,0.000000,0.000000,-1,-1.325927,-1.354281,-0.789540,-0.026720,-0.004035,-0.134315
"2018-06-07 00:58:22.326 +0000",1528333102.325511,1.306269,-1.198943,1.073652,0.350703,0.931656,-0.094997,0.000000,0.000000,0.000000,-1,-1.271761,-1.374672,-0.865019,-0.048518,0.063340,-0.140813
"2018-06-07 00:58:22.336 +0000",1528333102.335585,1.323697,-1.211492,1.103320,0.340941,0.936142,-0.086004,0.000000,0.000000,0.000000,-1,-1.364000,-0.875080,-0.951557,-0.105712,0.201737,-0.026835
"2018-06-07 00:58:22.346 +0000",1528333102.345659,1.344658,-1.221850,1.132605,0.333201,0.939733,-0.076661,0.000000,0.000000,0.000000,-1,-1.515954,-0.499158,-0.906014,-0.100917,0.101938,-0.009170
"2018-06-07 00:58:22.356 +0000",1528333102.355734,1.377937,-1.233543,1.173209,0.324760,0.943667,-0.063421,0.000000,0.000000,0.000000,-1,-1.571124,-0.518284,-0.831724,-0.103294,-0.006915,-0.124872
"2018-06-07 00:58:22.366 +0000",1528333102.365808,1.411236,-1.243829,1.216113,0.317091,0.947021,-0.051029,0.000000,0.000000,0.000000,-1,-1.537984,-0.798526,-0.735807,-0.141722,0.042039,-0.151455
"2018-06-07 00:58:22.376 +0000",1528333102.375882,1.446761,-1.252513,1.263701,0.310531,0.949774,-0.038716,0.000000,0.000000,0.000000,-1,-1.633311,-0.974960,-0.610251,-0.162674,0.010004,-0.096905
"2018-06-07 00:58:22.386 +0000",1528333102.385956,1.479922,-1.258040,1.308606,0.306411,0.951489,-0.027922,0.000000,0.000000,0.000000,-1,-1.687674,-0.803106,-0.527878,-0.145172,-0.108029,-0.016725
"2018-06-07 00:58:22.396 +0000",1528333102.396031,1.522133,-1.264529,1.357425,0.301144,0.953466,-0.014666,0.000000,0.000000,0.000000,-1,-1.437953,-0.301710,-0.556034,-0.122799,0.009852,0.000521
"2018-06-07 00:58:22.406 +0000",1528333102.406105,1.559461,-1.271110,1.397948,0.295200,0.955429,-0.003346,0.000000,0.000000,0.000000,-1,-1.164488,-0.107436,-0.629239,-0.084766,0.188583,-0.017009
"2018-06-07 00:58:22.416 +0000",1528333102.416179,1.597629,-1.277017,1.438745,0.289467,0.957156,0.007769,0.000000,0.000000,0.000000,-1,-1.198526,-0.059436,-0.579541,-0.041847,0.140500,-0.074160
"2018-06-07 00:58:22.426 +0000",1528333102.426253,1.632501,-1.280220,1.475852,0.285959,0.958079,0.017667,0.000000,0.000000,0.000000,-1,-1.313826,0.018880,-0.483317,-0.040048,-0.013194,-0.052778
"2018-06-07 00:58:22.436 +0000",1528333102.436328,1.678223,-1.283675,1.523751,0.281560,0.959063,0.030364,0.000000,0.000000,0.000000,-1,-1.303463,-0.031692,-0.458748,-0.044820,-0.122820,-0.022140
"2018-06-07 00:58:22.446 +0000",1528333102.446402,1.720911,-1.286845,1.569503,0.277000,0.959956,0.041897,0.000000,0.000000,0.000000,-1,-1.211780,-0.156481,-0.482985,-0.095878,-0.014750,0.013477
"2018-06-07 00:58:22.456 +0000",1528333102.456476,1.760621,-1.289364,1.614482,0.272743,0.960659,0.052404,0.000000,0.000000,0.000000,-1,-1.166659,-0.416686,-0.445122,-0.110115,0.045125,-0.031027
"2018-06-07 00:58:22.467 +0000",1528333102.466550,1.785850,-1.290113,1.647104,0.270631,0.960866,0.059114,0.000000,0.000000,0.000000,-1,-1.082039,-0.548501,-0.369329,-0.113008,0.078623,-0.082094
"2018-06-07 00:58:22.477 +0000",1528333102.476624,1.818405,-1.290895,1.686167,0.267835,0.961083,0.067708,0.000000,0.000000,0.000000,-1,-1.005870,-0.477173,-0.312286,-0.153837,0.075172,-0.044545
"2018-06-07 00:58:22.487 +0000",1528333102.486699,1.848098,-1.291627,1.721161,0.265030,0.961285,0.075437,0.000000,0.000000,0.000000,-1,-0.869327,-0.354878,-0.327302,-0.190644,0.006382,-0.068326
"2018-06-07 00:58:22.497 +0000",1528333102.496773,1.872111,-1.293065,1.749468,0.261823,0.961680,0.081368,0.000000,0.000000,0.000000,-1,-0.644321,-0.337649,-0.360037,-0.201352,0.009634,-0.061517
"2018-06-07 00:58:22.507 +0000",1528333102.506847,1.880081,-1.295072,1.761763,0.259327,0.962228,0.082865,0.000000,0.000000,0.000000,-1,-0.444268,-0.301679,-0.428156,-0.179966,0.022925,-0.065562
"2018-06-07 00:58:22.517 +0000",1528333102.516921,1.896032,-1.297942,1.781829,0.255353,0.963005,0.086108,0.000000,0.000000,0.000000,-1,-0.410492,-0.343232,-0.444489,-0.200162,0.029686,-0.048342
"2018-06-07 00:58:22.527 +0000",1528333102.526996,1.908307,-1.301827,1.797549,0.250744,0.964045,0.087996,0.000000,0.000000,0.000000,-1,-0.218845,-0.271042,-0.516786,-0.233792,0.032781,-0.074889
"2018-06-07 00:58:22.537 +0000",1528333102.537070,1.916781,-1.306449,1.808679,0.245796,0.965263,0.088606,0.000000,0.000000,0.000000,-1,-0.089666,-0.204789,-0.523343,-0.186393,0.036781,-0.038313
"2018-06-07 00:58:22.547 +0000",1528333102.547144,1.912753,-1.311343,1.804671,0.241698,0.966530,0.086030,0.000000,0.000000,0.000000,-1,0.091802,0.156938,-0.536690,-0.120162,0.042137,0.011184
"2018-06-07 00:58:22.557 +0000",1528333102.557218,1.921024,-1.316980,1.804463,0.235857,0.967961,0.086155,0.000000,0.000000,0.000000,-1,0.192841,1.036529,-0.535438,-0.085222,0.033733,0.048229
"2018-06-07 00:58:22.567 +0000",1528333102.567293,1.925091,-1.323746,1.798765,0.229356,0.969638,0.084840,0.000000,0.000000,0.000000,-1,0.440508,0.900383,-0.627831,-0.050890,0.064526,-0.104615
"2018-06-07 00:58:22.577 +0000",1528333102.577367,1.916037,-1.333306,1.786066,0.221382,0.971932,0.079619,0.000000,0.000000,0.000000,-1,0.666468,0.087265,-0.818952,-0.138709,0.172981,-0.229765
"2018-06-07 00:58:22.587 +0000",1528333102.587441,1.888293,-1.349190,1.764479,0.208812,0.975546,0.068618,0.000000,0.000000,0.000000,-1,0.896269,-0.924839,-0.938592,-0.128016,0.076044,-0.247360
"2018-06-07 00:58:22.598 +0000",1528333102.597515,1.843253,-1.359627,1.733208,0.201872,0.977787,0.056404,0.000000,0.000000,0.000000,-1,0.908848,-1.527280,-0.724169,0.036135,-0.001148,-0.237938
"2018-06-07 00:58:22.608 +0000",1528333102.607590,1.805436,-1.366381,1.708516,0.197432,0.979180,0.047195,0.000000,0.000000,0.000000,-1,0.584111,-1.264730,-0.459128,0.130418,-0.196999,-0.090499
"2018-06-07 00:58:22.618 +0000",1528333102.617664,1.778432,-1.369881,1.693455,0.195279,0.979884,0.041140,0.000000,0.000000,0.000000,-1,0.335352,-1.187394,-0.217389,0.130557,-0.147533,-0.051394
"2018-06-07 00:58:22.628 +0000",1528333102.627738,1.734617,-1.371891,1.661875,0.194950,0.980284,0.032226,0.000000,0.000000,0.000000,-1,0.489485,-1.267290,-0.172797,0.115093,-0.083250,-0.111022
"2018-06-07 00:58:22.638 +0000",1528333102.637812,1.696037,-1.374191,1.636151,0.193810,0.980735,0.024401,0.000000,0.000000,0.000000,-1,0.533419,-1.311199,-0.143983,0.126975,-0.042915,-0.147081
"2018-06-07 00:58:22.648 +0000",1528333102.647886,1.653688,-1.376773,1.606222,0.192145,0.981236,0.015964,0.000000,0.000000,0.000000,-1,0.636947,-1.300702,-0.222712,0.059228,-0.010411,-0.085696
"2018-06-07 00:58:22.658 +0000",1528333102.657961,1.602481,-1.380604,1.568125,0.188951,0.981968,0.005989,0.000000,0.000000,0.000000,-1,0.761127,-1.395207,-0.379240,-0.048815,0.089794,-0.125419
"2018-06-07 00:58:22.668 +0000",1528333102.668035,1.537487,-1.383946,1.517472,0.185659,0.982594,-0.006186,0.000000,0.000000,0.000000,-1,0.709091,-1.490646,-0.429953,-0.063665,0.077602,-0.106301
"2018-06-07 00:58:22.678 +0000",1528333102.678109,1.499096,-1.387612,1.491218,0.181691,0.983269,-0.013050,0.000000,0.000000,0.000000,-1,0.365879,-1.147159,-0.367932,-0.000508,0.027168,0.036670
"2018-06-07 00:58:22.688 +0000",1528333102.688183,1.475654,-1.390552,1.475659,0.178458,0.983800,-0.017030,0.000000,0.000000,0.000000,-1,0.232612,-0.715289,-0.300756,-0.010871,0.032161,0.171282
"2018-06-07 00:58:22.698 +0000",1528333102.698257,1.460921,-1.393042,1.466986,0.175752,0.984243,-0.019389,0.000000,0.000000,0.000000,-1,0.087162,-0.590757,-0.250581,-0.024171,0.045405,0.023005
"2018-06-07 00:58:22.708 +0000",1528333102.708332,1.444565,-1.394126,1.455093,0.174355,0.984434,-0.022127,0.000000,0.000000,0.000000,-1,-0.027913,-0.369534,-0.201270,-0.043923,0.094133,-0.040663
"2018-06-07 00:58:22.718 +0000",1528333102.718406,1.444554,-1.395908,1.456450,0.172613,0.984746,-0.021908,0.000000,0.000000,0.000000,-1,-0.041174,-0.050312,-0.155134,-0.041311,0.131587,-0.058247
"2018-06-07 00:58:22.728 +0000",1528333102.728480,1.441414,-1.396860,1.451456,0.171614,0.984911,-0.022329,0.000000,0.000000,0.000000,-1,0.122940,0.246265,-0.089033,-0.018629,0.123167,-0.100505
"2018-06-07 00:58:22.739 +0000",1528333102.738554,1.428673,-1.396355,1.434002,0.171807,0.984824,-0.024583,0.000000,0.000000,0.000000,-1,0.382069,0.523028,0.053164,0.023078,0.040872,-0.075163
"2018-06-07 00:58:22.749 +0000",1528333102.748629,1.393650,-1.393009,1.389950,0.174084,0.984237,-0.031165,0.000000,0.000000,0.000000,-1,0.680404,0.948364,0.132240,0.043476,0.012970,0.008490
"2018-06-07 00:58:22.759 +0000",1528333102.758703,1.358512,-1.389871,1.345701,0.175900,0.983678,-0.037912,0.000000,0.000000,0.000000,-1,0.883048,0.803908,0.159323,-0.043225,0.316356,-0.095831
"2018-06-07 00:58:22.769 +0000",1528333102.768777,1.319980,-1.384700,1.296957,0.179233,0.982734,-0.045922,0.000000,0.000000,0.000000,-1,0.986343,0.996555,0.361868,0.015972,0.390236,-0.157646
"2018-06-07 00:58:22.779 +0000",1528333102.778851,1.292886,-1.376428,1.256520,0.185736,0.981170,-0.052989,0.000000,0.000000,0.000000,-1,0.929000,1.344180,0.673872,0.130426,0.243684,-0.039143
"2018-06-07 00:58:22.789 +0000",1528333102.788926,1.274915,-1.363916,1.222893,0.196482,0.978677,-0.059893,0.000000,0.000000,0.000000,-1,0.754945,1.571694,1.016987,0.103827,0.217811,0.012927
"2018-06-07 00:58:22.799 +0000",1528333102.799000,1.283723,-1.349980,1.214383,0.210064,0.975719,-0.062017,0.000000,0.000000,0.000000,-1,0.504279,1.740817,1.359033,0.019764,0.211659,0.046727
"2018-06-07 00:58:22.809 +0000",1528333102.809074,1.309598,-1.333780,1.222892,0.226839,0.972043,-0.060635,0.000000,0.000000,0.000000,-1,0.167808,1.729750,1.681389,-0.050829,0.238696,0.068448
"2018-06-07 00:58:22.819 +0000",1528333102.819148,1.343236,-1.315469,1.240317,0.246051,0.967581,-0.056978,0.000000,0.000000,0.000000,-1,-0.010404,1.637134,1.921396,-0.138034,0.205347,0.041445
"2018-06-07 00:58:22.829 +0000",1528333102.829222,1.373793,-1.293662,1.258256,0.268308,0.961844,-0.053552,0.000000,0.000000,0.000000,-1,-0.224411,1.239035,2.210077,-0.212247,0.067560,0.018732
"2018-06-07 00:58:22.839 +0000",1528333102.839297,1.408416,-1.270520,1.285122,0.291893,0.955255,-0.047819,0.000000,0.000000,0.000000,-1,-0.363506,0.765544,2.463946,-0.278191,-0.035516,0.030378
"2018-06-07 00:58:22.849 +0000",1528333102.849371,1.438036,-1.244745,1.310038,0.317486,0.947315,-0.042399,0.000000,0.000000,0.000000,-1,-0.374312,0.542910,2.667696,-0.296780,-0.077075,0.032542
"2018-06-07 00:58:22.859 +0000",1528333102.859445,1.461506,-1.224163,1.331649,0.337706,0.940522,-0.037056,0.000000,0.000000,0.000000,-1,-0.548160,0.185362,1.688217,-0.230269,-0.206849,-0.025704
"2018-06-07 00:58:22.870 +0000",1528333102.869519,1.470826,-1.216796,1.341171,0.344922,0.937994,-0.034597,0.000000,0.000000,0.000000,-1,-0.388204,0.108756,0.426972,-0.109692,-0.403295,-0.037775
"2018-06-07 00:58:22.880 +0000",1528333102.879594,1.486870,-1.218656,1.356629,0.343694,0.938637,-0.028913,0.000000,0.000000,0.000000,-1,-0.630667,0.175838,-0.286506,0.153468,-0.499458,0.074766
"2018-06-07 00:58:22.890 +0000",1528333102.889668,1.514194,-1.223092,1.382261,0.340194,0.940158,-0.019276,0.000000,0.000000,0.000000,-1,-0.971729,0.365065,-0.348638,0.324997,-0.358294,0.222966
"2018-06-07 00:58:22.900 +0000",1528333102.899742,1.548156,-1.223744,1.415762,0.340040,0.940379,-0.007700,0.000000,0.000000,0.000000,-1,-1.183847,0.169475,0.079386,0.361315,-0.227977,0.178858
"2018-06-07 00:58:22.910 +0000",1528333102.909816,1.576959,-1.219642,1.447995,0.343975,0.938976,0.002120,0.000000,0.000000,0.000000,-1,-1.260597,-0.193280,0.407654,0.246342,-0.220699,0.021791
"2018-06-07 00:58:22.920 +0000",1528333102.919890,1.604046,-1.213533,1.480750,0.349518,0.936857,0.011626,0.000000,0.000000,0.000000,-1,-1.081510,-0.393536,0.636849,0.111587,-0.079115,-0.089568
"2018-06-07 00:58:22.930 +0000",1528333102.929965,1.622110,-1.205198,1.504535,0.357038,0.933910,0.018337,0.000000,0.000000,0.000000,-1,-0.796254,-0.415520,0.832975,0.012439,0.030293,-0.151165
"2018-06-07 00:58:22.940 +0000",1528333102.940039,1.633348,-1.195712,1.519367,0.365635,0.930477,0.022901,0.000000,0.000000,0.000000,-1,-0.519942,-0.161568,0.928813,-0.064792,0.097950,-0.166318
"2018-06-07 00:58:22.950 +0000",1528333102.950113,1.638146,-1.184514,1.523281,0.375894,0.926316,0.025355,0.000000,0.000000,0.000000,-1,-0.328028,0.268779,1.051173,-0.122812,0.059875,-0.060374
"2018-06-07 00:58:22.960 +0000",1528333102.960187,1.645574,-1.173096,1.525878,0.386217,0.921954,0.028934,0.000000,0.000000,0.000000,-1,-0.128421,0.560943,1.146223,-0.124010,-0.005542,-0.005390
"2018-06-07 00:58:22.970 +0000",1528333102.970262,1.648770,-1.161665,1.522979,0.396604,0.917467,0.030987,0.000000,0.000000,0.000000,-1,0.077617,0.566003,1.123177,-0.065427,-0.128023,0.001453
"2018-06-07 00:58:22.980 +0000",1528333102.980336,1.646143,-1.152260,1.515028,0.405270,0.913685,0.030594,0.000000,0.000000,0.000000,-1,0.298064,0.421616,0.883459,-0.074765,-0.147938,-0.061249
"2018-06-07 00:58:22.990 +0000",1528333102.990410,1.635180,-1.145596,1.500014,0.411648,0.910956,0.026540,0.000000,0.000000,0.000000,-1,0.442574,0.325747,0.541870,-0.070980,-0.036383,-0.088231
"2018-06-07 00:58:23.000 +0000",1528333103.000484,1.628246,-1.142763,1.488173,0.414396,0.909784,0.023833,0.000000,0.000000,0.000000,-1,0.466857,0.414896,0.240893,-0.019468,0.054816,-0.088362
"2018-06-07 00:58:23.011 +0000",1528333103.010558,1.625251,-1.142242,1.478572,0.414939,0.909567,0.022618,0.000000,0.000000,0.000000,-1,0.355918,0.625160,0.026630,0.001183,0.083475,-0.068989
"2018-06-07 00:58:23.021 +0000",1528333103.020633,1.628494,-1.143113,1.473803,0.414073,0.909929,0.023917,0.000000,0.000000,0.000000,-1,0.144583,0.784285,-0.101501,-0.017039,0.090163,-0.030906
"2018-06-07 00:58:23.031 +0000",1528333103.030707,1.632891,-1.143929,1.470538,0.413223,0.910267,0.025692,0.000000,0.000000,0.000000,-1,-0.052504,0.785041,-0.150527,-0.043701,0.078502,-0.017254
"2018-06-07 00:58:23.041 +0000",1528333103.040781,1.643212,-1.145355,1.474321,0.411641,0.910856,0.029862,0.000000,0.000000,0.000000,-1,-0.168946,0.642012,-0.151752,-0.066136,0.058519,-0.054031
"2018-06-07 00:58:23.051 +0000",1528333103.050855,1.652635,-1.146888,1.479196,0.409948,0.911488,0.033625,0.000000,0.000000,0.000000,-1,-0.185389,0.446660,-0.174871,-0.091070,0.054561,-0.099375
"2018-06-07 00:58:23.061 +0000",1528333103.060930,1.655319,-1.149196,1.479229,0.407758,0.912435,0.034547,0.000000,0.000000,0.000000,-1,-0.124085,0.306453,-0.207689,-0.098783,0.056940,-0.130433
"2018-06-07 00:58:23.071 +0000",1528333103.071004,1.656274,-1.151011,1.477785,0.406074,0.913176,0.034795,0.000000,0.000000,0.000000,-1,-0.042915,0.294757,-0.244480,-0.092933,0.049058,-0.142080
"2018-06-07 00:58:23.081 +0000",1528333103.081078,1.660232,-1.153686,1.478186,0.403499,0.914263,0.036184,0.000000,0.000000,0.000000,-1,0.022328,0.382872,-0.271265,-0.067699,0.034009,-0.141973
"2018-06-07 00:58:23.091 +0000",1528333103.091152,1.657200,-1.157366,1.471215,0.400252,0.915748,0.034669,0.000000,0.000000,0.000000,-1,0.063332,0.459893,-0.286194,-0.031920,0.016427,-0.134798
"2018-06-07 00:58:23.101 +0000",1528333103.101226,1.656839,-1.161692,1.466173,0.396313,0.917478,0.034184,0.000000,0.000000,0.000000,-1,0.106319,0.480839,-0.278702,0.012882,0.003299,-0.137410
"2018-06-07 00:58:23.111 +0000",1528333103.111301,1.656383,-1.166609,1.460759,0.391829,0.919422,0.033618,0.000000,0.000000,0.000000,-1,0.180669,0.483120,-0.249823,0.062379,-0.001560,-0.144763
"2018-06-07 00:58:23.121 +0000",1528333103.121375,1.649996,-1.171971,1.449437,0.387116,0.921518,0.030724,0.000000,0.000000,0.000000,-1,0.286512,0.485480,-0.218865,0.105972,-0.006586,-0.133797
"2018-06-07 00:58:23.131 +0000",1528333103.131449,1.635839,-1.178365,1.430624,0.381626,0.923982,0.024857,0.000000,0.000000,0.000000,-1,0.378708,0.472429,-0.186844,0.139111,0.007765,-0.125046
"2018-06-07 00:58:23.142 +0000",1528333103.141523,1.620230,-1.183039,1.410373,0.377649,0.925759,0.018684,0.000000,0.000000,0.000000,-1,0.468643,0.437317,-0.131219,0.182685,0.034751,-0.118003
"2018-06-07 00:58:23.152 +0000",1528333103.151597,1.603718,-1.185678,1.389390,0.375463,0.926754,0.012365,0.000000,0.000000,0.000000,-1,0.552982,0.374543,-0.027257,0.238078,0.085316,-0.095755
"2018-06-07 00:58:23.162 +0000",1528333103.161672,1.591248,-1.185153,1.372938,0.376074,0.926556,0.007692,0.000000,0.000000,0.000000,-1,0.629850,0.236997,0.101244,0.295327,0.170978,-0.073137
"2018-06-07 00:58:23.172 +0000",1528333103.171746,1.575676,-1.183444,1.354697,0.377731,0.925912,0.001843,0.000000,0.000000,0.000000,-1,0.698553,0.101755,0.198577,0.310379,0.251654,-0.085049
"2018-06-07 00:58:23.182 +0000",1528333103.181820,1.557339,-1.181215,1.334678,0.379764,0.925068,-0.005111,0.000000,0.000000,0.000000,-1,0.775199,-0.003488,0.215306,0.258129,0.272442,-0.149095
"2018-06-07 00:58:23.192 +0000",1528333103.191894,1.532819,-1.178526,1.309288,0.382010,0.924043,-0.014515,0.000000,0.000000,0.000000,-1,0.895205,-0.082088,0.190062,0.181833,0.247069,-0.241253
"2018-06-07 00:58:23.202 +0000",1528333103.201969,1.507180,-1.176096,1.283276,0.383752,0.923112,-0.024446,0.000000,0.000000,0.000000,-1,1.038146,-0.185981,0.190509,0.128791,0.180892,-0.296797
"2018-06-07 00:58:23.212 +0000",1528333103.212043,1.477458,-1.173191,1.254052,0.385524,0.921991,-0.036089,0.000000,0.000000,0.000000,-1,1.169482,-0.305311,0.199541,0.067052,0.099783,-0.284803
"2018-06-07 00:58:23.222 +0000",1528333103.222117,1.443697,-1.169946,1.221831,0.387051,0.920730,-0.049461,0.000000,0.000000,0.000000,-1,1.304238,-0.438763,0.175180,-0.006406,0.075669,-0.239495
"2018-06-07 00:58:23.232 +0000",1528333103.232191,1.402866,-1.165577,1.183524,0.388673,0.919016,-0.065891,0.000000,0.000000,0.000000,-1,1.480874,-0.535926,0.163737,-0.052400,0.078192,-0.215283
"2018-06-07 00:58:23.242 +0000",1528333103.242265,1.360117,-1.160947,1.143313,0.389659,0.917181,-0.083330,0.000000,0.000000,0.000000,-1,1.698445,-0.585761,0.150186,-0.069606,0.052668,-0.226180
"2018-06-07 00:58:23.252 +0000",1528333103.252340,1.312759,-1.154428,1.097794,0.391050,0.914564,-0.103206,0.000000,0.000000,0.000000,-1,1.992923,-0.557848,0.233493,-0.085874,0.031023,-0.244404
"2018-06-07 00:58:23.262 +0000",1528333103.262414,1.259341,-1.145562,1.046063,0.392685,0.910942,-0.126419,0.000000,0.000000,0.000000,-1,2.350001,-0.650233,0.249617,-0.083969,0.018364,-0.267182
"2018-06-07 00:58:23.272 +0000",1528333103.272488,1.196974,-1.134423,0.985976,0.393465,0.906290,-0.154343,0.000000,0.000000,0.000000,-1,2.692393,-0.746470,0.127005,-0.102419,0.065343,-0.312743
"2018-06-07 00:58:23.283 +0000",1528333103.282562,1.133753,-1.122254,0.924969,0.392892,0.901080,-0.183549,0.000000,0.000000,0.000000,-1,2.895455,-0.836873,0.092938,-0.053094,0.105405,-0.310195
"2018-06-07 00:58:23.293 +0000",1528333103.292636,1.071528,-1.107234,0.865384,0.392556,0.894465,-0.214082,0.000000,0.000000,0.000000,-1,3.036633,-0.845603,0.174338,0.077826,0.124715,-0.251495
"2018-06-07 00:58:23.303 +0000",1528333103.302711,1.012686,-1.089165,0.807207,0.392934,0.886241,-0.245317,0.000000,0.000000,0.000000,-1,3.222937,-0.651037,0.235789,0.112956,0.163015,-0.206740
"2018-06-07 00:58:23.313 +0000",1528333103.312785,0.955912,-1.067377,0.749544,0.394062,0.875938,-0.278292,0.000000,0.000000,0.000000,-1,3.373709,-0.524568,0.282064,0.066219,0.225456,-0.125180
"2018-06-07 00:58:23.323 +0000",1528333103.322859,0.906047,-1.044303,0.698040,0.395507,0.864574,-0.309976,0.000000,0.000000,0.000000,-1,3.368931,-0.508421,0.355266,-0.021072,0.285587,-0.044013
"2018-06-07 00:58:23.333 +0000",1528333103.332933,0.862751,-1.021069,0.655255,0.396874,0.852667,-0.339778,0.000000,0.000000,0.000000,-1,3.048332,-0.711542,0.412419,-0.099191,0.345392,0.027034
"2018-06-07 00:58:23.343 +0000",1528333103.343008,0.826048,-1.000093,0.621093,0.397204,0.841521,-0.366156,0.000000,0.000000,0.000000,-1,2.623635,-0.765067,0.329335,-0.213946,0.378434,0.129889
"2018-06-07 00:58:23.353 +0000",1528333103.353082,0.793896,-0.981570,0.592037,0.396277,0.831371,-0.389599,0.000000,0.000000,0.000000,-1,2.203576,-0.740360,0.179779,-0.295676,0.408482,0.200222
"2018-06-07 00:58:23.363 +0000",1528333103.363156,0.767245,-0.967331,0.568670,0.393932,0.823374,-0.408501,0.000000,0.000000,0.000000,-1,1.837045,-0.725410,0.036525,-0.291897,0.416158,0.275688
"2018-06-07 00:58:23.373 +0000",1528333103.373230,0.742623,-0.955600,0.548565,0.390261,0.816660,-0.425162,0.000000,0.000000,0.000000,-1,1.570010,-0.848730,-0.052501,-0.236330,0.371694,0.308508
"2018-06-07 00:58:23.383 +0000",1528333103.383304,0.717854,-0.945837,0.530490,0.384837,0.810987,-0.440682,0.000000,0.000000,0.000000,-1,1.369341,-1.044249,-0.158023,-0.125194,0.278811,0.286156
"2018-06-07 00:58:23.393 +0000",1528333103.393379,0.692164,-0.937109,0.513550,0.377894,0.805850,-0.455854,0.000000,0.000000,0.000000,-1,1.151497,-1.190593,-0.221413,-0.004343,0.190000,0.309690
"2018-06-07 00:58:23.403 +0000",1528333103.403453,0.668994,-0.931223,0.500566,0.370166,0.802351,-0.468199,0.000000,0.000000,0.000000,-1,0.858473,-1.275969,-0.213461,0.122525,0.142992,0.352110
"2018-06-07 00:58:23.414 +0000",1528333103.413527,0.650643,-0.925907,0.492106,0.364091,0.799166,-0.478300,0.000000,0.000000,0.000000,-1,0.710764,-1.079613,-0.014633,0.235625,0.080717,0.381315
"2018-06-07 00:58:23.424 +0000",1528333103.423601,0.638117,-0.918422,0.487439,0.361625,0.794645,-0.487614,0.000000,0.000000,0.000000,-1,0.778451,-0.830469,0.304328,0.240731,-0.063138,0.336888
"2018-06-07 00:58:23.434 +0000",1528333103.433675,0.627324,-0.908712,0.485214,0.360853,0.788713,-0.497712,0.000000,0.000000,0.000000,-1,0.769843,-0.899274,0.476251,0.101046,-0.141053,0.267442
"2018-06-07 00:58:23.444 +0000",1528333103.443750,0.617534,-0.899357,0.484866,0.360220,0.782927,-0.507214,0.000000,0.000000,0.000000,-1,0.768376,-0.946734,0.536352,-0.056280,-0.131789,0.250546
"2018-06-07 00:58:23.454 +0000",1528333103.453824,0.608342,-0.890176,0.485211,0.359635,0.777183,-0.516381,0.000000,0.000000,0.000000,-1,0.713731,-0.927132,0.537610,-0.141709,-0.141486,0.244653
"2018-06-07 00:58:23.464 +0000",1528333103.463898,0.600965,-0.881866,0.486528,0.359456,0.771926,-0.524329,0.000000,0.000000,0.000000,-1,0.604365,-0.794608,0.538246,-0.187169,-0.143905,0.242728
"2018-06-07 00:58:23.474 +0000",1528333103.473972,0.595431,-0.873572,0.488390,0.360128,0.766627,-0.531593,0.000000,0.000000,0.000000,-1,0.523230,-0.622536,0.550765,-0.193120,-0.135020,0.213539
"2018-06-07 00:58:23.484 +0000",1528333103.484047,0.593022,-0.866431,0.491668,0.361896,0.762022,-0.536985,0.000000,0.000000,0.000000,-1,0.446209,-0.445008,0.574046,-0.194523,-0.125380,0.189619
"2018-06-07 00:58:23.494 +0000",1528333103.494121,0.592993,-0.860251,0.496041,0.364505,0.758007,-0.540890,0.000000,0.000000,0.000000,-1,0.313739,-0.299367,0.572622,-0.213413,-0.120845,0.221371
"2018-06-07 00:58:23.504 +0000",1528333103.504195,0.594670,-0.855545,0.501314,0.367407,0.754928,-0.543227,0.000000,0.000000,0.000000,-1,0.156419,-0.207418,0.531299,-0.248770,-0.117385,0.271132
"2018-06-07 00:58:23.514 +0000",1528333103.514269,0.596303,-0.851863,0.506265,0.369851,0.752509,-0.544922,0.000000,0.000000,0.000000,-1,0.025868,-0.181018,0.431640,-0.293816,-0.118476,0.303498
"2018-06-07 00:58:23.524 +0000",1528333103.524343,0.597719,-0.850282,0.510754,0.371292,0.751467,-0.545381,0.000000,0.000000,0.000000,-1,-0.049752,-0.197127,0.296235,-0.336807,-0.117388,0.308214
"2018-06-07 00:58:23.534 +0000",1528333103.534418,0.597992,-0.849608,0.513682,0.371726,0.751022,-0.545698,0.000000,0.000000,0.000000,-1,-0.047692,-0.182292,0.162894,-0.359976,-0.127929,0.294218
"2018-06-07 00:58:23.544 +0000",1528333103.544492,0.597418,-0.849448,0.514798,0.371480,0.750916,-0.546010,0.000000,0.000000,0.000000,-1,-0.020521,-0.125704,0.037145,-0.378011,-0.143174,0.280645
"2018-06-07 00:58:23.555 +0000",1528333103.554566,0.596025,-0.849266,0.514031,0.370796,0.750796,-0.546640,0.000000,0.000000,0.000000,-1,-0.013559,-0.030867,-0.060478,-0.380424,-0.162814,0.288218
"2018-06-07 00:58:23.565 +0000",1528333103.564640,0.595988,-0.850126,0.512914,0.370413,0.751364,-0.546119,0.000000,0.000000,0.000000,-1,-0.038444,0.120811,-0.121292,-0.360784,-0.192343,0.309852
"2018-06-07 00:58:23.575 +0000",1528333103.574714,0.597540,-0.851596,0.511660,0.370638,0.752333,-0.544630,0.000000,0.000000,0.000000,-1,-0.089789,0.292075,-0.158324,-0.334719,-0.230757,0.325804
"2018-06-07 00:58:23.585 +0000",1528333103.584789,0.600847,-0.853859,0.510513,0.371474,0.753822,-0.541996,0.000000,0.000000,0.000000,-1,-0.164198,0.453414,-0.199634,-0.321120,-0.269920,0.317906
"2018-06-07 00:58:23.595 +0000",1528333103.594863,0.605036,-0.856848,0.509183,0.372458,0.755782,-0.538580,0.000000,0.000000,0.000000,-1,-0.276229,0.562032,-0.259298,-0.312918,-0.305907,0.290090
"2018-06-07 00:58:23.605 +0000",1528333103.604937,0.610890,-0.861766,0.508649,0.373468,0.758994,-0.533339,0.000000,0.000000,0.000000,-1,-0.415503,0.636561,-0.323301,-0.295343,-0.319403,0.252058
"2018-06-07 00:58:23.615 +0000",1528333103.615011,0.617968,-0.868086,0.508886,0.374446,0.763094,-0.526762,0.000000,0.000000,0.000000,-1,-0.556066,0.702170,-0.355057,-0.252727,-0.311464,0.198164
"2018-06-07 00:58:23.625 +0000",1528333103.625085,0.626967,-0.875586,0.510697,0.375803,0.767919,-0.518722,0.000000,0.000000,0.000000,-1,-0.713850,0.778487,-0.334037,-0.173639,-0.308355,0.161651
"2018-06-07 00:58:23.635 +0000",1528333103.635160,0.638346,-0.883823,0.514286,0.377899,0.773169,-0.509315,0.000000,0.000000,0.000000,-1,-0.880250,0.912876,-0.292390,-0.098358,-0.300589,0.153389
"2018-06-07 00:58:23.645 +0000",1528333103.645234,0.653506,-0.893504,0.520593,0.381008,0.779272,-0.497561,0.000000,0.000000,0.000000,-1,-1.044529,1.051676,-0.253963,-0.045803,-0.281485,0.149340
"2018-06-07 00:58:23.655 +0000",1528333103.655308,0.671382,-0.903973,0.529203,0.384745,0.785790,-0.484257,0.000000,0.000000,0.000000,-1,-1.177308,1.115870,-0.205068,-0.014475,-0.254998,0.139134
"2018-06-07 00:58:23.665 +0000",1528333103.665382,0.691049,-0.914511,0.539996,0.388894,0.792264,-0.470190,0.000000,0.000000,0.000000,-1,-1.236722,1.098905,-0.125383,0.004141,-0.213147,0.114538
"2018-06-07 00:58:23.675 +0000",1528333103.675456,0.711167,-0.923845,0.551964,0.393430,0.797925,-0.456648,0.000000,0.000000,0.000000,-1,-1.202771,1.056875,-0.027700,0.009127,-0.177244,0.081984
"2018-06-07 00:58:23.686 +0000",1528333103.685531,0.731954,-0.932264,0.564851,0.398333,0.802971,-0.443359,0.000000,0.000000,0.000000,-1,-1.105559,1.039316,0.035490,-0.019442,-0.168069,0.056137
"2018-06-07 00:58:23.696 +0000",1528333103.695605,0.753036,-0.939562,0.577838,0.403572,0.807300,-0.430577,0.000000,0.000000,0.000000,-1,-1.036661,1.068932,0.087049,-0.063424,-0.181354,0.056767
"2018-06-07 00:58:23.706 +0000",1528333103.705679,0.775458,-0.946008,0.591215,0.409473,0.811087,-0.417695,0.000000,0.000000,0.000000,-1,-0.990895,1.183041,0.131378,-0.079884,-0.207678,0.099229
"2018-06-07 00:58:23.716 +0000",1528333103.715753,0.799109,-0.951588,0.604675,0.415986,0.814338,-0.404733,0.000000,0.000000,0.000000,-1,-0.983842,1.304813,0.155380,-0.106538,-0.199134,0.127649
"2018-06-07 00:58:23.726 +0000",1528333103.725827,0.824781,-0.957471,0.619731,0.422713,0.817738,-0.390663,0.000000,0.000000,0.000000,-1,-1.048084,1.327606,0.174955,-0.139128,-0.160237,0.133599
"2018-06-07 00:58:23.736 +0000",1528333103.735902,0.851494,-0.963619,0.636541,0.429206,0.821262,-0.375914,0.000000,0.000000,0.000000,-1,-1.141620,1.264710,0.190045,-0.169990,-0.111957,0.106169
"2018-06-07 00:58:23.746 +0000",1528333103.745976,0.878714,-0.969852,0.654956,0.435329,0.824802,-0.360819,0.000000,0.000000,0.000000,-1,-1.205706,1.176656,0.202844,-0.190669,-0.066120,0.048701
"2018-06-07 00:58:23.756 +0000",1528333103.756050,0.905184,-0.975798,0.673621,0.440861,0.828149,-0.346137,0.000000,0.000000,0.000000,-1,-1.217065,1.095454,0.187574,-0.215107,-0.020776,-0.024194
"2018-06-07 00:58:23.766 +0000",1528333103.766124,0.931678,-0.981643,0.692776,0.445983,0.831411,-0.331443,0.000000,0.000000,0.000000,-1,-1.186492,1.038487,0.179809,-0.234343,0.011835,-0.092095
"2018-06-07 00:58:23.776 +0000",1528333103.776199,0.957459,-0.987022,0.711624,0.450715,0.834388,-0.317258,0.000000,0.000000,0.000000,-1,-1.142259,0.984856,0.170947,-0.258424,0.030389,-0.129703
"2018-06-07 00:58:23.786 +0000",1528333103.786273,0.981958,-0.992160,0.730288,0.454780,0.837209,-0.303736,0.000000,0.000000,0.000000,-1,-1.128289,0.838988,0.147902,-0.295830,0.038447,-0.126882
"2018-06-07 00:58:23.796 +0000",1528333103.796347,1.003816,-0.997193,0.748745,0.457750,0.839951,-0.291457,0.000000,0.000000,0.000000,-1,-1.149918,0.584347,0.123546,-0.327105,0.032898,-0.105836
"2018-06-07 00:58:23.806 +0000",1528333103.806421,1.023873,-1.002465,0.768109,0.459714,0.842800,-0.279911,0.000000,0.000000,0.000000,-1,-1.157880,0.308882,0.100175,-0.338453,0.002338,-0.088482
"2018-06-07 00:58:23.816 +0000",1528333103.816495,1.041988,-1.007700,0.787492,0.460894,0.845606,-0.269308,0.000000,0.000000,0.000000,-1,-1.151230,0.137749,0.075998,-0.330233,-0.043208,-0.071146
"2018-06-07 00:58:23.827 +0000",1528333103.826570,1.059352,-1.013168,0.807201,0.461461,0.848512,-0.258998,0.000000,0.000000,0.000000,-1,-1.179177,0.044538,0.033840,-0.304876,-0.086412,-0.044759
"2018-06-07 00:58:23.837 +0000",1528333103.836644,1.075093,-1.019193,0.826845,0.460975,0.851685,-0.249266,0.000000,0.000000,0.000000,-1,-1.239358,-0.121076,-0.041799,-0.272743,-0.090058,-0.053117
"2018-06-07 00:58:23.847 +0000",1528333103.846718,1.089459,-1.026329,0.847513,0.459110,0.855403,-0.239798,0.000000,0.000000,0.000000,-1,-1.283390,-0.403952,-0.154388,-0.248065,-0.030498,-0.150293
"2018-06-07 00:58:23.857 +0000",1528333103.856792,1.098924,-1.034524,0.867618,0.455099,0.859619,-0.232248,0.000000,0.000000,0.000000,-1,-1.282959,-0.917166,-0.283884,-0.218023,0.143020,-0.307211
"2018-06-07 00:58:23.867 +0000",1528333103.866866,1.101599,-1.043171,0.886702,0.449072,0.864005,-0.227660,0.000000,0.000000,0.000000,-1,-1.227390,-1.505202,-0.335201,-0.122824,0.358300,-0.426804
"2018-06-07 00:58:23.877 +0000",1528333103.876941,1.099354,-1.050657,0.903345,0.442785,0.867750,-0.225724,0.000000,0.000000,0.000000,-1,-1.059944,-1.599525,-0.244429,0.036097,0.477709,-0.443374
"2018-06-07 00:58:23.887 +0000",1528333103.887015,1.101486,-1.055571,0.916984,0.439457,0.870182,-0.222848,0.000000,0.000000,0.000000,-1,-0.732193,-0.677129,-0.090831,0.233395,0.489682,-0.263801
"2018-06-07 00:58:23.897 +0000",1528333103.897089,1.113166,-1.056993,0.926676,0.440919,0.870882,-0.217153,0.000000,0.000000,0.000000,-1,-0.408669,0.630185,0.155327,0.437133,0.403319,0.146657
"2018-06-07 00:58:23.907 +0000",1528333103.907163,1.130680,-1.054533,0.933956,0.446591,0.869670,-0.210309,0.000000,0.000000,0.000000,-1,-0.161445,1.176342,0.446774,0.492756,0.238271,0.493864
"2018-06-07 00:58:23.917 +0000",1528333103.917237,1.145717,-1.049080,0.939977,0.454016,0.866965,-0.205524,0.000000,0.000000,0.000000,-1,-0.054731,0.889170,0.673731,0.249551,0.041269,0.563464
"2018-06-07 00:58:23.927 +0000",1528333103.927312,1.153381,-1.042498,0.944703,0.460785,0.863666,-0.204347,0.000000,0.000000,0.000000,-1,0.101391,0.148591,0.677673,-0.105209,-0.039997,0.237275
"2018-06-07 00:58:23.937 +0000",1528333103.937386,1.147467,-1.036124,0.942862,0.464578,0.860436,-0.209326,0.000000,0.000000,0.000000,-1,0.432359,-0.593955,0.481139,-0.211847,0.068763,-0.356531
"2018-06-07 00:58:23.947 +0000",1528333103.947460,1.131420,-1.030907,0.934196,0.465215,0.857766,-0.218660,0.000000,0.000000,0.000000,-1,0.647834,-0.898561,0.224831,-0.177007,0.320625,-0.490111
"2018-06-07 00:58:23.958 +0000",1528333103.957534,1.116786,-1.028071,0.925508,0.464151,0.856304,-0.226510,0.000000,0.000000,0.000000,-1,0.391704,-0.568017,0.027385,-0.067300,0.608127,-0.228934
"2018-06-07 00:58:23.968 +0000",1528333103.967608,1.114870,-1.029867,0.926422,0.462334,0.857231,-0.226722,0.000000,0.000000,0.000000,-1,-0.310537,-0.236364,-0.206684,0.055839,1.055733,0.129066
"2018-06-07 00:58:23.978 +0000",1528333103.977683,1.112609,-1.035499,0.931558,0.457484,0.860117,-0.225628,0.000000,0.000000,0.000000,-1,-0.413360,-0.864792,-0.416951,0.228017,1.613943,-0.050877
"2018-06-07 00:58:23.988 +0000",1528333103.987757,1.091538,-1.035266,0.920978,0.452806,0.859998,-0.235309,0.000000,0.000000,0.000000,-1,0.845035,-1.174316,-0.117402,0.637313,1.388308,-0.896130
"2018-06-07 00:58:23.998 +0000",1528333103.997831,1.066115,-1.025809,0.895254,0.453777,0.855134,-0.250665,0.000000,0.000000,0.000000,-1,1.702857,0.060146,0.316634,0.868443,0.430785,-0.941672
"2018-06-07 00:58:24.008 +0000",1528333104.007905,1.055349,-1.013432,0.871161,0.460226,0.848652,-0.260733,0.000000,0.000000,0.000000,-1,1.651057,1.188865,0.494291,0.708017,-0.219898,-0.076578
"2018-06-07 00:58:24.018 +0000",1528333104.017979,1.052722,-1.001800,0.852558,0.468084,0.842442,-0.266812,0.000000,0.000000,0.000000,-1,1.334794,1.256021,0.500589,0.331400,-0.419011,0.251523
"2018-06-07 00:58:24.028 +0000",1528333104.028054,1.051575,-0.993787,0.841303,0.473624,0.838098,-0.270689,0.000000,0.000000,0.000000,-1,0.768124,0.650112,0.372122,-0.106253,-0.428689,0.336821
"2018-06-07 00:58:24.038 +0000",1528333104.038128,1.051469,-0.988048,0.838573,0.477763,0.834953,-0.273122,0.000000,0.000000,0.000000,-1,0.264971,0.131372,0.441682,-0.151133,-0.469887,0.489339
"2018-06-07 00:58:24.048 +0000",1528333104.048202,1.054584,-0.985129,0.842692,0.480729,0.833343,-0.272834,0.000000,0.000000,0.000000,-1,-0.159306,-0.065805,0.321608,-0.081010,-0.413437,0.582893
"2018-06-07 00:58:24.058 +0000",1528333104.058276,1.060950,-0.985805,0.851599,0.481964,0.833717,-0.269493,0.000000,0.000000,0.000000,-1,-0.552771,-0.105643,0.136306,-0.069366,-0.206611,0.573433
"2018-06-07 00:58:24.068 +0000",1528333104.068350,1.071109,-0.989370,0.864851,0.482065,0.835680,-0.263158,0.000000,0.000000,0.000000,-1,-0.883767,-0.087395,0.015570,-0.025965,-0.052248,0.450856
"2018-06-07 00:58:24.078 +0000",1528333104.078425,1.083746,-0.994803,0.881542,0.481332,0.838652,-0.254916,0.000000,0.000000,0.000000,-1,-1.128940,-0.128385,-0.058208,0.015189,0.077196,0.301700
"2018-06-07 00:58:24.088 +0000",1528333104.088499,1.098203,-1.001471,0.900705,0.479978,0.842265,-0.245380,0.000000,0.000000,0.000000,-1,-1.236527,-0.175587,-0.130167,0.033237,0.182699,0.142185
"2018-06-07 00:58:24.099 +0000",1528333104.098573,1.112245,-1.008218,0.919440,0.478269,0.845883,-0.236096,0.000000,0.000000,0.000000,-1,-1.159681,-0.173083,-0.152924,0.057268,0.191456,-0.017994
"2018-06-07 00:58:24.109 +0000",1528333104.108647,1.124071,-1.013784,0.934744,0.476774,0.848838,-0.228386,0.000000,0.000000,0.000000,-1,-0.887779,-0.088926,-0.145772,0.076006,0.129158,-0.130745
"2018-06-07 00:58:24.119 +0000",1528333104.118721,1.131557,-1.018021,0.943509,0.475211,0.851070,-0.223279,0.000000,0.000000,0.000000,-1,-0.524161,0.059372,-0.190275,0.011727,0.059467,-0.210285
"2018-06-07 00:58:24.129 +0000",1528333104.128796,1.136280,-1.021496,0.946516,0.473575,0.852890,-0.219785,0.000000,0.000000,0.000000,-1,-0.216028,0.263632,-0.265682,-0.084430,-0.036560,-0.176028
"2018-06-07 00:58:24.139 +0000",1528333104.138870,1.138155,-1.024562,0.944661,0.471610,0.854486,-0.217800,0.000000,0.000000,0.000000,-1,0.014403,0.350166,-0.329421,-0.174155,-0.127802,-0.107533
"2018-06-07 00:58:24.149 +0000",1528333104.148944,1.134201,-1.026945,0.938343,0.468899,0.855722,-0.218801,0.000000,0.000000,0.000000,-1,0.260697,0.035909,-0.357790,-0.253795,-0.200799,-0.212519
"2018-06-07 00:58:24.159 +0000",1528333104.159018,1.120012,-1.028367,0.926619,0.464651,0.856457,-0.224901,0.000000,0.000000,0.000000,-1,0.515638,-0.538497,-0.385860,-0.361333,-0.226727,-0.422498
"2018-06-07 00:58:24.169 +0000",1528333104.169092,1.100231,-1.029445,0.912071,0.459288,0.857013,-0.233629,0.000000,0.000000,0.000000,-1,0.642294,-0.736609,-0.441585,-0.480300,-0.221500,-0.407286
"2018-06-07 00:58:24.179 +0000",1528333104.179167,1.081702,-1.030825,0.896636,0.453837,0.857723,-0.241543,0.000000,0.000000,0.000000,-1,0.628815,-0.432310,-0.501980,-0.501032,-0.258648,-0.168079
"2018-06-07 00:58:24.189 +0000",1528333104.189241,1.066075,-1.032701,0.880574,0.448597,0.858686,-0.247827,0.000000,0.000000,0.000000,-1,0.639557,-0.115829,-0.572077,-0.436085,-0.313307,-0.056327
"2018-06-07 00:58:24.199 +0000",1528333104.199315,1.049681,-1.034686,0.861920,0.442995,0.859702,-0.254299,0.000000,0.000000,0.000000,-1,0.722867,0.001009,-0.630013,-0.372850,-0.335791,-0.063496
"2018-06-07 00:58:24.209 +0000",1528333104.209389,1.031948,-1.035987,0.841505,0.437456,0.860366,-0.261540,0.000000,0.000000,0.000000,-1,0.861590,-0.034808,-0.635813,-0.273882,-0.315291,-0.033412
"2018-06-07 00:58:24.219 +0000",1528333104.219463,1.011094,-1.036483,0.819071,0.431545,0.860618,-0.270379,0.000000,0.000000,0.000000,-1,0.961514,-0.204695,-0.633309,-0.155758,-0.264457,0.047707
"2018-06-07 00:58:24.230 +0000",1528333104.229537,0.988044,-1.036497,0.796393,0.425189,0.860626,-0.280246,0.000000,0.000000,0.000000,-1,0.953161,-0.392507,-0.616626,-0.025439,-0.198257,0.138797
"2018-06-07 00:58:24.240 +0000",1528333104.239612,0.965202,-1.036638,0.774967,0.418577,0.860698,-0.289815,0.000000,0.000000,0.000000,-1,0.822820,-0.411595,-0.601324,0.076097,-0.151301,0.204305
"2018-06-07 00:58:24.250 +0000",1528333104.249686,0.946284,-1.037578,0.757126,0.412364,0.861175,-0.297208,0.000000,0.000000,0.000000,-1,0.631514,-0.325438,-0.593105,0.146840,-0.140213,0.225965
"2018-06-07 00:58:24.260 +0000",1528333104.259760,0.931839,-1.039515,0.742793,0.406688,0.862159,-0.302138,0.000000,0.000000,0.000000,-1,0.413816,-0.161444,-0.577071,0.189504,-0.160529,0.186369
"2018-06-07 00:58:24.270 +0000",1528333104.269834,0.921762,-1.042230,0.731279,0.401756,0.863531,-0.304805,0.000000,0.000000,0.000000,-1,0.270632,0.032379,-0.556817,0.199791,-0.184515,0.100963
"2018-06-07 00:58:24.280 +0000",1528333104.279908,0.913414,-1.044815,0.720376,0.397429,0.864832,-0.306783,0.000000,0.000000,0.000000,-1,0.254444,0.137538,-0.513449,0.203294,-0.205805,-0.000147
"2018-06-07 00:58:24.290 +0000",1528333104.289983,0.904476,-1.046632,0.709417,0.393436,0.865742,-0.309352,0.000000,0.000000,0.000000,-1,0.346617,0.003662,-0.463488,0.214016,-0.211308,-0.064062
"2018-06-07 00:58:24.300 +0000",1528333104.300057,0.891137,-1.047248,0.697117,0.388859,0.866050,-0.314237,0.000000,0.000000,0.000000,-1,0.467417,-0.371628,-0.418604,0.217967,-0.216026,-0.098407
"2018-06-07 00:58:24.310 +0000",1528333104.310131,0.872839,-1.046986,0.684200,0.383218,0.865920,-0.321444,0.000000,0.000000,0.000000,-1,0.517922,-0.811873,-0.375899,0.203665,-0.233779,-0.110349
"2018-06-07 00:58:24.320 +0000",1528333104.320205,0.851506,-1.046209,0.671696,0.376781,0.865531,-0.329989,0.000000,0.000000,0.000000,-1,0.481075,-1.082213,-0.331424,0.180928,-0.239630,-0.084257
"2018-06-07 00:58:24.330 +0000",1528333104.330279,0.830206,-1.045383,0.660652,0.370194,0.865117,-0.338422,0.000000,0.000000,0.000000,-1,0.468320,-1.182280,-0.299416,0.148147,-0.221287,-0.048938
"2018-06-07 00:58:24.340 +0000",1528333104.340354,0.808459,-1.043444,0.649053,0.363960,0.864142,-0.347549,0.000000,0.000000,0.000000,-1,0.594891,-1.147064,-0.236141,0.126289,-0.159583,-0.029144
"2018-06-07 00:58:24.350 +0000",1528333104.350428,0.784552,-1.038797,0.634884,0.358381,0.861795,-0.358989,0.000000,0.000000,0.000000,-1,0.931360,-1.188242,-0.141299,0.087816,-0.031228,-0.124715
"2018-06-07 00:58:24.361 +0000",1528333104.360502,0.753106,-1.029163,0.615149,0.352579,0.856868,-0.376119,0.000000,0.000000,0.000000,-1,1.513706,-1.523036,-0.023134,0.067114,0.185201,-0.371638
"2018-06-07 00:58:24.371 +0000",1528333104.370576,0.713134,-1.013338,0.589831,0.346096,0.848603,-0.400114,0.000000,0.000000,0.000000,-1,2.225159,-1.913532,0.112859,0.066655,0.444625,-0.533083
"2018-06-07 00:58:24.381 +0000",1528333104.380650,0.668079,-0.990658,0.560629,0.339561,0.836387,-0.430296,0.000000,0.000000,0.000000,-1,2.887925,-2.041863,0.264785,0.078362,0.699212,-0.572145
"2018-06-07 00:58:24.391 +0000",1528333104.390725,0.622083,-0.962824,0.530520,0.332857,0.820808,-0.464198,0.000000,0.000000,0.000000,-1,3.290794,-2.113485,0.333571,0.062803,0.918923,-0.580068
"2018-06-07 00:58:24.401 +0000",1528333104.400799,0.576903,-0.932597,0.502176,0.324941,0.803170,-0.499332,0.000000,0.000000,0.000000,-1,3.367337,-2.189129,0.360067,0.050059,1.050407,-0.538602
"2018-06-07 00:58:24.411 +0000",1528333104.410873,0.538506,-0.902214,0.480957,0.317905,0.784701,-0.532147,0.000000,0.000000,0.000000,-1,3.166026,-2.129135,0.580134,0.143429,1.078245,-0.262347
"2018-06-07 00:58:24.421 +0000",1528333104.420947,0.508039,-0.873735,0.470444,0.312294,0.766732,-0.560887,0.000000,0.000000,0.000000,-1,2.641482,-2.240708,0.923066,0.294304,0.955100,0.236546
"2018-06-07 00:58:24.431 +0000",1528333104.431021,0.481435,-0.848115,0.467201,0.306262,0.750035,-0.586218,0.000000,0.000000,0.000000,-1,2.251197,-2.478270,1.031909,0.211927,0.749691,0.589010
"2018-06-07 00:58:24.441 +0000",1528333104.441096,0.454323,-0.824927,0.465482,0.297811,0.734498,-0.609772,0.000000,0.000000,0.000000,-1,2.019016,-2.484963,0.903344,0.094538,0.464614,0.685959
"2018-06-07 00:58:24.451 +0000",1528333104.451170,0.433968,-0.805856,0.464247,0.291176,0.721424,-0.628303,0.000000,0.000000,0.000000,-1,1.616659,-1.730994,0.683800,-0.040474,0.218838,0.704566
"2018-06-07 00:58:24.461 +0000",1528333104.461244,0.419401,-0.792810,0.464203,0.285801,0.712329,-0.641019,0.000000,0.000000,0.000000,-1,1.057011,-1.367229,0.478540,-0.251377,0.195356,0.529890
"2018-06-07 00:58:24.471 +0000",1528333104.471318,0.405340,-0.782426,0.462422,0.279662,0.705002,-0.651737,0.000000,0.000000,0.000000,-1,1.017758,-1.274145,0.244410,-0.487715,0.451599,-0.117779
"2018-06-07 00:58:24.481 +0000",1528333104.481392,0.390002,-0.770217,0.459200,0.272885,0.696291,-0.663862,0.000000,0.000000,0.000000,-1,1.219857,-1.215707,0.317261,-0.319470,0.840941,-0.734850
"2018-06-07 00:58:24.491 +0000",1528333104.491466,0.383148,-0.756552,0.458861,0.271860,0.686418,-0.674479,0.000000,0.000000,0.000000,-1,1.259402,-0.432730,0.542107,0.296499,1.002729,-0.457037
"2018-06-07 00:58:24.502 +0000",1528333104.501541,0.387773,-0.743321,0.461398,0.278387,0.676736,-0.681563,0.000000,0.000000,0.000000,-1,1.096577,0.510230,0.702267,0.539224,0.814444,0.001845
"2018-06-07 00:58:24.512 +0000",1528333104.511615,0.400559,-0.731602,0.466675,0.290152,0.668063,-0.685204,0.000000,0.000000,0.000000,-1,0.865075,0.999738,0.834374,0.409769,0.383161,0.182595
"2018-06-07 00:58:24.522 +0000",1528333104.521689,0.414810,-0.721481,0.473709,0.302596,0.660497,-0.687153,0.000000,0.000000,0.000000,-1,0.612508,0.951541,0.903654,0.185670,0.044428,0.262104
"2018-06-07 00:58:24.532 +0000",1528333104.531763,0.428425,-0.714256,0.482529,0.313898,0.655055,-0.687292,0.000000,0.000000,0.000000,-1,0.287196,0.695981,0.897201,-0.041589,-0.131679,0.372152
"2018-06-07 00:58:24.542 +0000",1528333104.541837,0.440584,-0.710764,0.493677,0.323204,0.652413,-0.685489,0.000000,0.000000,0.000000,-1,-0.143236,0.425803,0.903855,-0.215554,-0.202126,0.514301
"2018-06-07 00:58:24.552 +0000",1528333104.551912,0.452304,-0.710643,0.506349,0.331250,0.652321,-0.681726,0.000000,0.000000,0.000000,-1,-0.468274,0.338439,0.840882,-0.398343,-0.234032,0.571344
"2018-06-07 00:58:24.562 +0000",1528333104.561986,0.464262,-0.712640,0.518045,0.338795,0.653834,-0.676550,0.000000,0.000000,0.000000,-1,-0.608846,0.496877,0.662032,-0.568607,-0.300715,0.529256
"2018-06-07 00:58:24.572 +0000",1528333104.572060,0.478072,-0.716414,0.528110,0.346968,0.656684,-0.669611,0.000000,0.000000,0.000000,-1,-0.698868,0.799410,0.447989,-0.669340,-0.389640,0.494440
"2018-06-07 00:58:24.582 +0000",1528333104.582134,0.494370,-0.722053,0.535882,0.356071,0.660927,-0.660597,0.000000,0.000000,0.000000,-1,-0.789661,1.214124,0.183719,-0.735115,-0.445610,0.499998
"2018-06-07 00:58:24.592 +0000",1528333104.592208,0.512496,-0.729956,0.541382,0.365414,0.666837,-0.649462,0.000000,0.000000,0.000000,-1,-0.917029,1.486055,-0.087336,-0.766247,-0.453626,0.514208
"2018-06-07 00:58:24.602 +0000",1528333104.602283,0.529885,-0.740166,0.544977,0.373191,0.674411,-0.637102,0.000000,0.000000,0.000000,-1,-1.041355,1.496529,-0.311831,-0.690100,-0.460513,0.518373
"2018-06-07 00:58:24.612 +0000",1528333104.612357,0.546354,-0.752074,0.547571,0.379433,0.683155,-0.623964,0.000000,0.000000,0.000000,-1,-1.131322,1.444329,-0.489258,-0.570686,-0.475788,0.526826
"2018-06-07 00:58:24.622 +0000",1528333104.622431,0.561068,-0.765412,0.548316,0.383689,0.692834,-0.610543,0.000000,0.000000,0.000000,-1,-1.156914,1.393573,-0.706627,-0.510566,-0.479776,0.488519
"2018-06-07 00:58:24.633 +0000",1528333104.632505,0.572462,-0.780157,0.546864,0.385044,0.703391,-0.597479,0.000000,0.000000,0.000000,-1,-1.194937,1.157256,-0.923432,-0.501453,-0.498161,0.424796
"2018-06-07 00:58:24.643 +0000",1528333104.642579,0.579330,-0.796647,0.543598,0.382736,0.715016,-0.585034,0.000000,0.000000,0.000000,-1,-1.260440,0.848281,-1.109192,-0.499405,-0.546940,0.415784
"2018-06-07 00:58:24.653 +0000",1528333104.652653,0.582783,-0.814834,0.539985,0.377534,0.727612,-0.572756,0.000000,0.000000,0.000000,-1,-1.422072,0.516771,-1.220578,-0.501619,-0.600002,0.438723
"2018-06-07 00:58:24.663 +0000",1528333104.662728,0.584629,-0.835300,0.537204,0.370294,0.741498,-0.559521,0.000000,0.000000,0.000000,-1,-1.650318,0.359470,-1.295808,-0.444558,-0.637570,0.500652
"2018-06-07 00:58:24.673 +0000",1528333104.672802,0.587397,-0.858321,0.535853,0.362283,0.756746,-0.544138,0.000000,0.000000,0.000000,-1,-1.928270,0.398449,-1.350991,-0.359140,-0.640550,0.544932
"2018-06-07 00:58:24.683 +0000",1528333104.682876,0.593388,-0.884380,0.536759,0.354387,0.773522,-0.525427,0.000000,0.000000,0.000000,-1,-2.256019,0.591919,-1.369040,-0.211824,-0.592660,0.571386
"2018-06-07 00:58:24.693 +0000",1528333104.692950,0.605793,-0.912510,0.542743,0.348346,0.791041,-0.502900,0.000000,0.000000,0.000000,-1,-2.604069,0.825211,-1.210520,0.001660,-0.468913,0.565446
"2018-06-07 00:58:24.703 +0000",1528333104.703024,0.628444,-0.940852,0.558795,0.346324,0.808060,-0.476549,0.000000,0.000000,0.000000,-1,-2.920109,1.008817,-0.700482,0.329595,-0.221070,0.509797
"2018-06-07 00:58:24.713 +0000",1528333104.713099,0.662141,-0.966433,0.587289,0.349357,0.822864,-0.448157,0.000000,0.000000,0.000000,-1,-3.020587,1.032226,-0.065553,0.595376,0.036435,0.340827
"2018-06-07 00:58:24.723 +0000",1528333104.723173,0.702229,-0.987455,0.624132,0.355784,0.834627,-0.420495,0.000000,0.000000,0.000000,-1,-2.830744,0.915563,0.394049,0.584005,0.130797,0.077661
"2018-06-07 00:58:24.733 +0000",1528333104.733247,0.743767,-1.003144,0.663626,0.364026,0.843166,-0.395672,0.000000,0.000000,0.000000,-1,-2.495142,0.822289,0.608138,0.384921,0.111989,-0.158543
"2018-06-07 00:58:24.743 +0000",1528333104.743321,0.785804,-1.015493,0.702304,0.372939,0.849740,-0.372636,0.000000,0.000000,0.000000,-1,-2.249593,0.977712,0.618784,0.083619,0.060523,-0.235518
"2018-06-07 00:58:24.753 +0000",1528333104.753395,0.829622,-1.026939,0.739934,0.381704,0.855719,-0.349353,0.000000,0.000000,0.000000,-1,-2.192092,1.218836,0.487050,-0.208135,0.006723,-0.187116
"2018-06-07 00:58:24.763 +0000",1528333104.763470,0.875304,-1.039315,0.777936,0.389098,0.862057,-0.324746,0.000000,0.000000,0.000000,-1,-2.274053,1.311422,0.343370,-0.426299,0.038516,-0.162757
"2018-06-07 00:58:24.774 +0000",1528333104.773544,0.923404,-1.050731,0.818589,0.396386,0.867787,-0.299707,0.000000,0.000000,0.000000,-1,-2.279712,1.271644,0.401352,-0.487237,0.036709,-0.181540
"2018-06-07 00:58:24.784 +0000",1528333104.783618,0.971803,-1.058928,0.859690,0.404534,0.871831,-0.276159,0.000000,0.000000,0.000000,-1,-2.027682,1.253072,0.547009,-0.420815,0.052058,-0.291789
"2018-06-07 00:58:24.794 +0000",1528333104.793692,1.015180,-1.063173,0.894052,0.412980,0.873902,-0.256402,0.000000,0.000000,0.000000,-1,-1.460603,1.368821,0.546047,-0.423127,0.152831,-0.466193
"2018-06-07 00:58:24.804 +0000",1528333104.803766,1.046506,-1.063827,0.913243,0.420314,0.874220,-0.243056,0.000000,0.000000,0.000000,-1,-0.590082,1.468356,0.423871,-0.465877,0.253878,-0.678575
"2018-06-07 00:58:24.814 +0000",1528333104.813840,1.063416,-1.061086,0.915462,0.426456,0.872886,-0.237077,0.000000,0.000000,0.000000,-1,0.221120,1.493339,0.239226,-0.444324,0.331170,-0.858458
"2018-06-07 00:58:24.824 +0000",1528333104.823915,1.069148,-1.059113,0.907148,0.429317,0.871921,-0.235457,0.000000,0.000000,0.000000,-1,0.467925,1.144263,-0.124847,-0.385433,0.624310,-0.652513
"2018-06-07 00:58:24.834 +0000",1528333104.833989,1.062040,-1.060238,0.896627,0.426775,0.872472,-0.238024,0.000000,0.000000,0.000000,-1,0.375571,-0.164552,-0.383371,-0.208575,0.947154,-0.312681
"2018-06-07 00:58:24.844 +0000",1528333104.844063,1.041364,-1.060856,0.883794,0.421298,0.872774,-0.246524,0.000000,0.000000,0.000000,-1,0.580468,-1.062379,-0.283190,0.137571,0.764555,-0.191037
"2018-06-07 00:58:24.854 +0000",1528333104.854137,1.023508,-1.059708,0.870138,0.417684,0.872213,-0.254529,0.000000,0.000000,0.000000,-1,0.594149,-0.322619,-0.241270,0.332651,0.393977,0.511395
"2018-06-07 00:58:24.864 +0000",1528333104.864211,1.021141,-1.059542,0.862699,0.417204,0.872131,-0.255592,0.000000,0.000000,0.000000,-1,0.219534,0.568336,-0.123802,0.400713,0.135758,1.124687
"2018-06-07 00:58:24.874 +0000",1528333104.874286,1.026620,-1.058326,0.865128,0.419505,0.871536,-0.253852,0.000000,0.000000,0.000000,-1,-0.121328,0.172735,0.270589,0.437657,-0.089569,1.027716
"2018-06-07 00:58:24.884 +0000",1528333104.884360,1.031348,-1.056225,0.874785,0.422271,0.870504,-0.252805,0.000000,0.000000,0.000000,-1,-0.303073,-0.497252,0.494942,0.096574,-0.128393,0.277158
"2018-06-07 00:58:24.894 +0000",1528333104.894434,1.038061,-1.052789,0.881982,0.426533,0.868807,-0.251482,0.000000,0.000000,0.000000,-1,-0.046248,0.387348,0.451750,0.144451,0.046247,-0.334852
"2018-06-07 00:58:24.905 +0000",1528333104.904508,1.056149,-1.049482,0.885808,0.433510,0.867165,-0.245139,0.000000,0.000000,0.000000,-1,-0.045804,1.735779,0.364242,0.492500,0.244010,-0.123116
"2018-06-07 00:58:24.915 +0000",1528333104.914582,1.079696,-1.049480,0.897740,0.439163,0.867164,-0.234865,0.000000,0.000000,0.000000,-1,-0.683866,0.942971,0.254756,0.456620,1.036904,-0.365675
"2018-06-07 00:58:24.925 +0000",1528333104.924656,1.085589,-1.050221,0.909243,0.439970,0.867533,-0.231973,0.000000,0.000000,0.000000,-1,-0.328498,-0.770880,0.283378,0.643205,2.407918,-0.880774
"2018-06-07 00:58:24.935 +0000",1528333104.934731,1.077661,-1.044806,0.900576,0.442249,0.864827,-0.237675,0.000000,0.000000,0.000000,-1,0.964693,0.550275,0.227250,1.260159,2.650615,-1.474667
"2018-06-07 00:58:24.945 +0000",1528333104.944805,1.071180,-1.036690,0.868811,0.446846,0.860724,-0.243890,0.000000,0.000000,0.000000,-1,2.028619,2.370425,-0.125930,0.937111,1.095056,-0.638113
"2018-06-07 00:58:24.955 +0000",1528333104.954879,1.058401,-1.025723,0.828783,0.451893,0.855089,-0.254194,0.000000,0.000000,0.000000,-1,2.308187,1.963243,0.037895,0.501216,-0.153185,-0.071963
"2018-06-07 00:58:24.965 +0000",1528333104.964953,1.050178,-1.013758,0.799805,0.458631,0.848825,-0.262971,0.000000,0.000000,0.000000,-1,1.739031,1.588771,0.478048,0.171267,-0.610406,0.441591
"2018-06-07 00:58:24.975 +0000",1528333104.975027,1.055831,-1.002404,0.787050,0.468469,0.842767,-0.265104,0.000000,0.000000,0.000000,-1,0.949721,1.665904,0.671544,-0.147836,-0.834863,0.767347
"2018-06-07 00:58:24.985 +0000",1528333104.985102,1.070575,-0.994924,0.787250,0.477844,0.838718,-0.261185,0.000000,0.000000,0.000000,-1,0.161531,1.344429,0.631540,-0.287064,-0.951633,0.849762
"2018-06-07 00:58:24.995 +0000",1528333104.995176,1.090817,-0.991931,0.796993,0.485257,0.837084,-0.252617,0.000000,0.000000,0.000000,-1,-0.472531,1.194051,0.469056,-0.228177,-0.701098,0.836129
"2018-06-07 00:58:25.005 +0000",1528333105.005250,1.118987,-0.992789,0.814784,0.491534,0.837553,-0.238536,0.000000,0.000000,0.000000,-1,-1.015116,1.361925,0.391189,-0.093524,-0.319273,0.751216
"2018-06-07 00:58:25.015 +0000",1528333105.015324,1.156130,-0.996100,0.842835,0.497511,0.839358,-0.219000,0.000000,0.000000,0.000000,-1,-1.695033,1.317581,0.305490,0.010637,-0.012758,0.578558
"2018-06-07 00:58:25.025 +0000",1528333105.025398,1.197336,-1.002695,0.880008,0.500946,0.842924,-0.196295,0.000000,0.000000,0.000000,-1,-2.183585,0.835118,0.110514,0.055268,0.501085,0.326407
"2018-06-07 00:58:25.035 +0000",1528333105.035472,1.232284,-1.009495,0.917538,0.502080,0.846563,-0.176765,0.000000,0.000000,0.000000,-1,-2.018821,0.179267,0.072732,0.100337,0.665995,-0.066232
"2018-06-07 00:58:25.046 +0000",1528333105.045547,1.258354,-1.013456,0.946752,0.503322,0.848665,-0.162584,0.000000,0.000000,0.000000,-1,-1.374959,0.151931,0.212088,0.117878,0.366331,-0.303053
"2018-06-07 00:58:25.056 +0000",1528333105.055621,1.276576,-1.014053,0.964075,0.505717,0.848980,-0.153239,0.000000,0.000000,0.000000,-1,-0.739648,0.420517,0.197431,-0.021769,0.096683,-0.336156
"2018-06-07 00:58:25.066 +0000",1528333105.065695,1.289505,-1.014549,0.972467,0.507250,0.849243,-0.146571,0.000000,0.000000,0.000000,-1,-0.354129,0.616593,0.030393,-0.237719,-0.045654,-0.290013
"2018-06-07 00:58:25.076 +0000",1528333105.075768,1.298899,-1.016089,0.975419,0.507344,0.850055,-0.141449,0.000000,0.000000,0.000000,-1,-0.144870,0.692568,-0.147346,-0.423696,-0.134753,-0.175034
"2018-06-07 00:58:25.086 +0000",1528333105.085843,1.304796,-1.019313,0.975179,0.505523,0.851748,-0.137733,0.000000,0.000000,0.000000,-1,-0.021878,0.554050,-0.280335,-0.509093,-0.195498,-0.106026
"2018-06-07 00:58:25.096 +0000",1528333105.095917,1.305733,-1.022709,0.972333,0.502857,0.853523,-0.136501,0.000000,0.000000,0.000000,-1,0.080111,0.257315,-0.394375,-0.519123,-0.240013,-0.134907
"2018-06-07 00:58:25.106 +0000",1528333105.105992,1.301485,-1.027076,0.966742,0.498675,0.855790,-0.137642,0.000000,0.000000,0.000000,-1,0.195862,-0.005275,-0.526632,-0.458254,-0.234788,-0.164344
"2018-06-07 00:58:25.116 +0000",1528333105.116066,1.292429,-1.032071,0.957766,0.493291,0.858364,-0.140977,0.000000,0.000000,0.000000,-1,0.349045,-0.173511,-0.621054,-0.306036,-0.217098,-0.162612
"2018-06-07 00:58:25.126 +0000",1528333105.126140,1.278628,-1.037448,0.945098,0.486872,0.861109,-0.146439,0.000000,0.000000,0.000000,-1,0.523658,-0.324456,-0.635876,-0.122859,-0.243876,-0.176040
"2018-06-07 00:58:25.136 +0000",1528333105.136214,1.260677,-1.041268,0.929162,0.481029,0.863045,-0.154150,0.000000,0.000000,0.000000,-1,0.696675,-0.450440,-0.582856,0.011921,-0.280037,-0.209573
"2018-06-07 00:58:25.146 +0000",1528333105.146287,1.238362,-1.043546,0.910032,0.475610,0.864194,-0.164203,0.000000,0.000000,0.000000,-1,0.889428,-0.629211,-0.494539,0.093543,-0.291287,-0.238278
"2018-06-07 00:58:25.156 +0000",1528333105.156362,1.208962,-1.044031,0.886662,0.470186,0.864438,-0.177965,0.000000,0.000000,0.000000,-1,1.153988,-1.023945,-0.429603,0.101347,-0.287076,-0.346312
"2018-06-07 00:58:25.166 +0000",1528333105.166437,1.170146,-1.043276,0.857102,0.463527,0.864058,-0.196331,0.000000,0.000000,0.000000,-1,1.485271,-1.381948,-0.441084,0.025319,-0.262205,-0.502552
"2018-06-07 00:58:25.177 +0000",1528333105.176511,1.126889,-1.040448,0.822522,0.456808,0.862631,-0.217241,0.000000,0.000000,0.000000,-1,1.752076,-1.269165,-0.457502,-0.044073,-0.234198,-0.432997
"2018-06-07 00:58:25.187 +0000",1528333105.186584,1.086369,-1.036450,0.786424,0.450681,0.860602,-0.237172,0.000000,0.000000,0.000000,-1,1.798919,-0.807962,-0.459495,-0.027982,-0.251715,-0.184108
"2018-06-07 00:58:25.197 +0000",1528333105.196659,1.053338,-1.032174,0.753327,0.445797,0.858416,-0.253744,0.000000,0.000000,0.000000,-1,1.623868,-0.358509,-0.424441,0.006199,-0.333010,0.162176
"2018-06-07 00:58:25.207 +0000",1528333105.206733,1.026106,-1.028237,0.725000,0.441610,0.856390,-0.267537,0.000000,0.000000,0.000000,-1,1.385754,-0.291477,-0.336574,0.042857,-0.398886,0.363469
"2018-06-07 00:58:25.217 +0000",1528333105.216808,1.002748,-1.024343,0.703141,0.438048,0.854373,-0.279570,0.000000,0.000000,0.000000,-1,1.075418,-0.535339,-0.242991,0.040345,-0.415561,0.410201
"2018-06-07 00:58:25.227 +0000",1528333105.226882,0.982395,-1.021660,0.688010,0.434173,0.852976,-0.289699,0.000000,0.000000,0.000000,-1,0.705594,-0.791240,-0.197712,-0.011489,-0.427607,0.444713
"2018-06-07 00:58:25.237 +0000",1528333105.236956,0.966375,-1.021260,0.678976,0.429757,0.852767,-0.296810,0.000000,0.000000,0.000000,-1,0.311073,-0.815181,-0.247433,-0.054345,-0.442977,0.438977
"2018-06-07 00:58:25.247 +0000",1528333105.247030,0.955179,-1.023912,0.674668,0.424560,0.854149,-0.300296,0.000000,0.000000,0.000000,-1,-0.046419,-0.714761,-0.347433,-0.071364,-0.404030,0.406147
"2018-06-07 00:58:25.257 +0000",1528333105.257103,0.947563,-1.028513,0.673862,0.419064,0.856532,-0.301224,0.000000,0.000000,0.000000,-1,-0.280238,-0.685535,-0.403822,-0.041180,-0.324245,0.327668
"2018-06-07 00:58:25.267 +0000",1528333105.267178,0.941542,-1.033937,0.675309,0.413481,0.859319,-0.301003,0.000000,0.000000,0.000000,-1,-0.399010,-0.737533,-0.386491,0.018236,-0.257268,0.207757
"2018-06-07 00:58:25.277 +0000",1528333105.277253,0.934711,-1.039457,0.677227,0.407593,0.862129,-0.300998,0.000000,0.000000,0.000000,-1,-0.391502,-0.888998,-0.388024,0.051788,-0.197502,0.073749
"2018-06-07 00:58:25.287 +0000",1528333105.287327,0.923710,-1.044557,0.676599,0.400744,0.864702,-0.302809,0.000000,0.000000,0.000000,-1,-0.214695,-1.077229,-0.410489,0.074277,-0.124422,-0.105852
"2018-06-07 00:58:25.297 +0000",1528333105.297400,0.906551,-1.047439,0.670907,0.393526,0.866146,-0.308103,0.000000,0.000000,0.000000,-1,0.156101,-1.277177,-0.389329,0.115843,-0.059887,-0.292223
"2018-06-07 00:58:25.307 +0000",1528333105.307475,0.878832,-1.045973,0.657217,0.385812,0.865412,-0.319701,0.000000,0.000000,0.000000,-1,0.793204,-1.678742,-0.281165,0.191473,-0.000743,-0.552705
"2018-06-07 00:58:25.318 +0000",1528333105.317549,0.841049,-1.038013,0.635325,0.378583,0.861397,-0.338629,0.000000,0.000000,0.000000,-1,1.534239,-1.912572,-0.050127,0.267291,0.100334,-0.731195
"2018-06-07 00:58:25.328 +0000",1528333105.327622,0.797428,-1.022541,0.607188,0.372950,0.853435,-0.364083,0.000000,0.000000,0.000000,-1,2.284234,-1.928078,0.218097,0.345312,0.315220,-0.705314
"2018-06-07 00:58:25.338 +0000",1528333105.337698,0.750893,-0.999924,0.575598,0.368687,0.841430,-0.395050,0.000000,0.000000,0.000000,-1,2.902297,-1.994249,0.439148,0.420360,0.620347,-0.648269
"2018-06-07 00:58:25.348 +0000",1528333105.347772,0.704469,-0.971428,0.545219,0.365341,0.825692,-0.429835,0.000000,0.000000,0.000000,-1,3.325788,-2.102841,0.699244,0.469284,0.881568,-0.600088
"2018-06-07 00:58:25.358 +0000",1528333105.357846,0.659872,-0.937876,0.516624,0.362600,0.806303,-0.467328,0.000000,0.000000,0.000000,-1,3.707973,-2.114508,0.855379,0.323115,1.068941,-0.694553
"2018-06-07 00:58:25.368 +0000",1528333105.367919,0.616122,-0.901730,0.490334,0.358428,0.784401,-0.506204,0.000000,0.000000,0.000000,-1,3.813923,-2.315282,0.897578,0.153992,1.191978,-0.538626
"2018-06-07 00:58:25.378 +0000",1528333105.377994,0.575117,-0.866937,0.472871,0.352014,0.762350,-0.543054,0.000000,0.000000,0.000000,-1,3.307646,-2.877425,1.105777,0.170539,1.196466,-0.026236
"2018-06-07 00:58:25.388 +0000",1528333105.388068,0.542146,-0.835466,0.467208,0.346133,0.741609,-0.574636,0.000000,0.000000,0.000000,-1,2.722282,-2.761756,1.407559,0.234846,1.033736,0.619024
"2018-06-07 00:58:25.398 +0000",1528333105.398143,0.517520,-0.806760,0.468851,0.342272,0.722049,-0.601244,0.000000,0.000000,0.000000,-1,2.301727,-2.529782,1.570544,0.107801,0.778607,0.795610
"2018-06-07 00:58:25.408 +0000",1528333105.408216,0.496621,-0.781595,0.472786,0.338185,0.704412,-0.624046,0.000000,0.000000,0.000000,-1,1.991734,-2.234697,1.416144,0.080303,0.566996,0.750633
"2018-06-07 00:58:25.418 +0000",1528333105.418291,0.481695,-0.760769,0.474795,0.335558,0.689479,-0.641887,0.000000,0.000000,0.000000,-1,1.684435,-1.378554,0.978323,-0.049776,0.494130,0.600994
"2018-06-07 00:58:25.428 +0000",1528333105.428365,0.471218,-0.743810,0.472676,0.334075,0.677096,-0.655693,0.000000,0.000000,0.000000,-1,1.560238,-0.795201,0.529610,-0.257156,0.549146,0.191841
"2018-06-07 00:58:25.438 +0000",1528333105.438438,0.460195,-0.727106,0.466809,0.331804,0.664710,-0.669377,0.000000,0.000000,0.000000,-1,1.714939,-0.696281,0.341305,-0.376284,0.755242,-0.461681
"2018-06-07 00:58:25.449 +0000",1528333105.448514,0.451651,-0.710019,0.462772,0.330983,0.651848,-0.682308,0.000000,0.000000,0.000000,-1,1.636309,-0.487783,0.570128,-0.126317,0.867393,-0.530400
"2018-06-07 00:58:25.459 +0000",1528333105.458588,0.451754,-0.693842,0.463554,0.335613,0.639496,-0.691671,0.000000,0.000000,0.000000,-1,1.335605,0.133923,0.807116,0.255940,0.782852,-0.088130
"2018-06-07 00:58:25.469 +0000",1528333105.468662,0.460614,-0.680478,0.468517,0.345496,0.629165,-0.696264,0.000000,0.000000,0.000000,-1,0.914866,0.674429,0.955940,0.356729,0.511109,0.211035
"2018-06-07 00:58:25.479 +0000",1528333105.478735,0.473175,-0.670703,0.476583,0.357000,0.621537,-0.697311,0.000000,0.000000,0.000000,-1,0.483832,0.743308,0.999077,0.279689,0.137634,0.333969
"2018-06-07 00:58:25.489 +0000",1528333105.488810,0.486208,-0.664840,0.486519,0.367754,0.616933,-0.695809,0.000000,0.000000,0.000000,-1,0.091327,0.669900,0.966418,0.191694,-0.166387,0.431557
"2018-06-07 00:58:25.499 +0000",1528333105.498884,0.499282,-0.662409,0.498032,0.377537,0.615018,-0.692256,0.000000,0.000000,0.000000,-1,-0.314463,0.573593,0.888545,0.044232,-0.355283,0.523006
"2018-06-07 00:58:25.509 +0000",1528333105.508959,0.512774,-0.663999,0.510743,0.386361,0.616271,-0.686246,0.000000,0.000000,0.000000,-1,-0.721985,0.581824,0.749668,-0.149392,-0.430145,0.552289
"2018-06-07 00:58:25.519 +0000",1528333105.519032,0.528513,-0.669395,0.523922,0.395431,0.620512,-0.677199,0.000000,0.000000,0.000000,-1,-1.049737,0.811012,0.590814,-0.352004,-0.403822,0.550414
"2018-06-07 00:58:25.529 +0000",1528333105.529107,0.546729,-0.678326,0.537323,0.404804,0.627491,-0.665123,0.000000,0.000000,0.000000,-1,-1.301849,1.041518,0.429640,-0.592166,-0.432300,0.512719
"2018-06-07 00:58:25.539 +0000",1528333105.539181,0.566560,-0.689204,0.549818,0.414225,0.635923,-0.651168,0.000000,0.000000,0.000000,-1,-1.453447,1.226573,0.178824,-0.822123,-0.412565,0.484206
"2018-06-07 00:58:25.549 +0000",1528333105.549254,0.585673,-0.701751,0.559800,0.422150,0.645556,-0.636433,0.000000,0.000000,0.000000,-1,-1.445977,1.264049,-0.114735,-0.946198,-0.414187,0.432560
"2018-06-07 00:58:25.559 +0000",1528333105.559329,0.602565,-0.715020,0.566551,0.427947,0.655632,-0.622099,0.000000,0.000000,0.000000,-1,-1.356780,1.228055,-0.373199,-0.953139,-0.433907,0.392622
"2018-06-07 00:58:25.569 +0000",1528333105.569404,0.617620,-0.729576,0.571331,0.431692,0.666554,-0.607740,0.000000,0.000000,0.000000,-1,-1.355465,1.183745,-0.538980,-0.877538,-0.449482,0.406446
"2018-06-07 00:58:25.579 +0000",1528333105.579478,0.632836,-0.744845,0.575219,0.434818,0.677858,-0.592825,0.000000,0.000000,0.000000,-1,-1.415275,1.281936,-0.695601,-0.797031,-0.467561,0.460379
"2018-06-07 00:58:25.590 +0000",1528333105.589551,0.648694,-0.761964,0.578353,0.437089,0.690344,-0.576523,0.000000,0.000000,0.000000,-1,-1.528417,1.384500,-0.883282,-0.743836,-0.510198,0.512528
"2018-06-07 00:58:25.600 +0000",1528333105.599626,0.665106,-0.781346,0.580359,0.438150,0.704236,-0.558637,0.000000,0.000000,0.000000,-1,-1.638022,1.522432,-1.125726,-0.694467,-0.556256,0.524976
"2018-06-07 00:58:25.610 +0000",1528333105.609700,0.680703,-0.803577,0.580596,0.436847,0.719844,-0.539434,0.000000,0.000000,0.000000,-1,-1.726264,1.532112,-1.398709,-0.639026,-0.572856,0.500860
"2018-06-07 00:58:25.620 +0000",1528333105.619774,0.694500,-0.827629,0.579144,0.433040,0.736329,-0.519900,0.000000,0.000000,0.000000,-1,-1.801976,1.448428,-1.650480,-0.554973,-0.571870,0.465609
"2018-06-07 00:58:25.630 +0000",1528333105.629848,0.706206,-0.853717,0.576949,0.426482,0.753728,-0.500006,0.000000,0.000000,0.000000,-1,-1.916085,1.277548,-1.815289,-0.425444,-0.535085,0.444358
"2018-06-07 00:58:25.640 +0000",1528333105.639923,0.716246,-0.881566,0.575637,0.417533,0.771735,-0.479677,0.000000,0.000000,0.000000,-1,-2.085516,1.031444,-1.879081,-0.261375,-0.454459,0.425813
