timestamp,timeIntervalSince1970,attitude.roll,attitude.pitch,attitude.yaw,gravity.x,gravity.y,gravity.z,magneticField.x,magneticField.y,magneticField.z,magneticField.accuracy,rotationRate.x,rotationRate.y,rotationRate.z,userAcceleration.x,userAcceleration.y,userAcceleration.z
"2018-06-07 01:01:49.569 +0000",1528333309.568585,-0.125633,0.148109,0.018635,-0.123931,-0.147568,-0.981257,0.000000,0.000000,0.000000,-1,-2.484840,2.278214,0.044493,0.090209,0.285599,-0.270284
"2018-06-07 01:01:49.579 +0000",1528333309.578660,-0.105190,0.127722,0.016009,-0.104141,-0.127375,-0.986372,0.000000,0.000000,0.000000,-1,-1.877867,1.926743,-0.033215,0.127365,0.360880,-0.446855
"2018-06-07 01:01:49.589 +0000",1528333309.588734,-0.086821,0.113916,0.015028,-0.086150,-0.113670,-0.989776,0.000000,0.000000,0.000000,-1,-1.207398,1.770068,0.076661,0.333282,0.315284,-0.398087
"2018-06-07 01:01:49.599 +0000",1528333309.598808,-0.070687,0.105662,0.017590,-0.070234,-0.105465,-0.991940,0.000000,0.000000,0.000000,-1,-0.682532,1.582401,0.412666,0.481672,0.166943,-0.302494
"2018-06-07 01:01:49.609 +0000",1528333309.608882,-0.055892,0.099509,0.024432,-0.055586,-0.099345,-0.993499,0.000000,0.000000,0.000000,-1,-0.572101,1.540429,0.809204,0.511793,0.127406,-0.105073
"2018-06-07 01:01:49.619 +0000",1528333309.618956,-0.040701,0.090846,0.034275,-0.040522,-0.090721,-0.995052,0.000000,0.000000,0.000000,-1,-0.918666,1.633900,1.065197,0.438334,0.220314,0.094127
"2018-06-07 01:01:49.629 +0000",1528333309.629030,-0.023544,0.077718,0.045523,-0.023471,-0.077640,-0.996705,0.000000,0.000000,0.000000,-1,-1.373485,1.864897,1.176626,0.380862,0.291522,0.152833
"2018-06-07 01:01:49.639 +0000",1528333309.639104,-0.003237,0.061315,0.057883,-0.003231,-0.061277,-0.998116,0.000000,0.000000,0.000000,-1,-1.679102,2.177616,1.270741,0.378445,0.241422,0.139702
"2018-06-07 01:01:49.649 +0000",1528333309.649178,0.019565,0.043424,0.071289,0.019545,-0.043410,-0.998866,0.000000,0.000000,0.000000,-1,-1.802528,2.362599,1.317815,0.312624,0.179656,0.068034
"2018-06-07 01:01:49.659 +0000",1528333309.659252,0.042528,0.026456,0.084364,0.042500,-0.026453,-0.998746,0.000000,0.000000,0.000000,-1,-1.681892,2.290934,1.209766,0.215953,0.164652,-0.049533
"2018-06-07 01:01:49.669 +0000",1528333309.669327,0.063838,0.011416,0.096009,0.063790,-0.011416,-0.997898,0.000000,0.000000,0.000000,-1,-1.517506,2.083571,1.029153,0.168006,0.136156,-0.099697
"2018-06-07 01:01:49.679 +0000",1528333309.679401,0.083860,-0.003048,0.106294,0.083761,0.003048,-0.996481,0.000000,0.000000,0.000000,-1,-1.522557,1.985389,0.878289,0.148035,0.121692,-0.101114
"2018-06-07 01:01:49.689 +0000",1528333309.689475,0.102103,-0.018530,0.116209,0.101908,0.018529,-0.994621,0.000000,0.000000,0.000000,-1,-1.637386,1.637282,0.829135,0.153325,0.141002,0.092018
"2018-06-07 01:01:49.700 +0000",1528333309.699549,0.108734,-0.032020,0.125540,0.108464,0.032014,-0.993585,0.000000,0.000000,0.000000,-1,-1.335164,0.322211,0.753625,0.151393,0.190642,-0.151343
"2018-06-07 01:01:49.710 +0000",1528333309.709623,0.108538,-0.043415,0.133345,0.108223,0.043401,-0.993179,0.000000,0.000000,0.000000,-1,-1.202420,-0.107177,0.617616,0.167076,0.201014,-0.029587
"2018-06-07 01:01:49.720 +0000",1528333309.719697,0.108016,-0.055330,0.141094,0.107641,0.055301,-0.992651,0.000000,0.000000,0.000000,-1,-1.271058,-0.046061,0.657750,0.183649,0.128903,0.082449
"2018-06-07 01:01:49.730 +0000",1528333309.729771,0.109266,-0.067217,0.149899,0.108803,0.067166,-0.991792,0.000000,0.000000,0.000000,-1,-1.261443,0.068807,0.759173,0.198677,0.132266,0.081819
"2018-06-07 01:01:49.740 +0000",1528333309.739845,0.109685,-0.078246,0.158705,0.109130,0.078166,-0.990949,0.000000,0.000000,0.000000,-1,-1.148769,-0.038360,0.734939,0.157319,0.144460,-0.002032
"2018-06-07 01:01:49.750 +0000",1528333309.749919,0.110930,-0.087962,0.167056,0.110275,0.087848,-0.990011,0.000000,0.000000,0.000000,-1,-1.020621,0.101490,0.716766,0.133546,0.119763,-0.025629
"2018-06-07 01:01:49.760 +0000",1528333309.759994,0.114533,-0.096759,0.175719,0.113748,0.096608,-0.988801,0.000000,0.000000,0.000000,-1,-0.945599,0.339710,0.765692,0.165747,0.132823,-0.015090
"2018-06-07 01:01:49.770 +0000",1528333309.770068,0.121089,-0.104389,0.184885,0.120136,0.104200,-0.987274,0.000000,0.000000,0.000000,-1,-0.822446,0.641666,0.830827,0.181637,0.144122,-0.053162
"2018-06-07 01:01:49.780 +0000",1528333309.780142,0.132379,-0.110214,0.194874,0.131192,0.109991,-0.985236,0.000000,0.000000,0.000000,-1,-0.657710,1.167564,0.924485,0.221133,0.068461,-0.082391
"2018-06-07 01:01:49.790 +0000",1528333309.790216,0.151511,-0.114758,0.205399,0.149939,0.114506,-0.982042,0.000000,0.000000,0.000000,-1,-0.583324,2.010620,0.981625,0.220788,0.075603,-0.020995
"2018-06-07 01:01:49.800 +0000",1528333309.800290,0.182013,-0.119465,0.217094,0.179720,0.119181,-0.976472,0.000000,0.000000,0.000000,-1,-0.694495,3.211936,1.085409,0.292799,0.075567,0.101945
"2018-06-07 01:01:49.810 +0000",1528333309.810364,0.225583,-0.126557,0.229876,0.221886,0.126219,-0.966869,0.000000,0.000000,0.000000,-1,-1.045339,4.465772,1.071574,0.332237,0.079424,0.321880
"2018-06-07 01:01:49.820 +0000",1528333309.820438,0.278861,-0.137916,0.242611,0.272648,0.137479,-0.952241,0.000000,0.000000,0.000000,-1,-1.529916,5.324793,0.877264,0.299801,0.092913,0.538865
"2018-06-07 01:01:49.831 +0000",1528333309.830512,0.341013,-0.154549,0.256611,0.330455,0.153935,-0.931184,0.000000,0.000000,0.000000,-1,-2.161369,6.167550,0.799412,0.302876,0.093502,0.788468
"2018-06-07 01:01:49.841 +0000",1528333309.840586,0.410374,-0.176300,0.275079,0.392769,0.175388,-0.902758,0.000000,0.000000,0.000000,-1,-2.830923,6.705231,0.933738,0.392403,0.107922,0.852618
"2018-06-07 01:01:49.851 +0000",1528333309.850661,0.486591,-0.199192,0.301026,0.458369,0.197877,-0.866454,0.000000,0.000000,0.000000,-1,-3.223256,7.218861,1.490088,0.487249,0.122832,0.693664
"2018-06-07 01:01:49.861 +0000",1528333309.860735,0.569408,-0.215461,0.339694,0.526667,0.213797,-0.822747,0.000000,0.000000,0.000000,-1,-3.300203,7.416533,2.732134,0.662069,-0.102622,0.472191
"2018-06-07 01:01:49.871 +0000",1528333309.870809,0.648523,-0.224584,0.386236,0.588842,0.222701,-0.776962,0.000000,0.000000,0.000000,-1,-3.330651,6.574506,3.244988,0.716121,0.175020,0.135315
"2018-06-07 01:01:49.881 +0000",1528333309.880883,0.715744,-0.230699,0.432636,0.638795,0.228658,-0.734613,0.000000,0.000000,0.000000,-1,-3.287743,5.343923,3.006819,0.367186,0.618236,-0.004156
"2018-06-07 01:01:49.891 +0000",1528333309.890957,0.775837,-0.239110,0.475284,0.680390,0.236838,-0.693526,0.000000,0.000000,0.000000,-1,-3.311460,4.772531,2.336160,-0.032669,0.730554,0.146773
"2018-06-07 01:01:49.901 +0000",1528333309.901031,0.829905,-0.251120,0.513052,0.714724,0.248489,-0.653776,0.000000,0.000000,0.000000,-1,-3.490089,4.348752,1.440400,-0.150698,0.686280,0.172132
"2018-06-07 01:01:49.911 +0000",1528333309.911105,0.879201,-0.268861,0.546520,0.742558,0.265634,-0.614855,0.000000,0.000000,0.000000,-1,-3.591193,3.944851,0.568184,-0.154591,0.497611,0.067186
"2018-06-07 01:01:49.921 +0000",1528333309.921179,0.924099,-0.290756,0.575793,0.764581,0.286677,-0.577264,0.000000,0.000000,0.000000,-1,-3.503494,3.547351,-0.134494,-0.211251,0.287908,-0.021369
"2018-06-07 01:01:49.931 +0000",1528333309.931253,0.962600,-0.314700,0.602221,0.780376,0.309531,-0.543327,0.000000,0.000000,0.000000,-1,-3.368760,2.777471,-0.487702,-0.107952,0.087350,-0.232140
"2018-06-07 01:01:49.941 +0000",1528333309.941328,0.992051,-0.337678,0.629672,0.789873,0.331297,-0.516085,0.000000,0.000000,0.000000,-1,-3.451427,1.809773,-0.408579,0.061690,-0.135512,-0.343306
"2018-06-07 01:01:49.951 +0000",1528333309.951402,1.016563,-0.358631,0.660959,0.796206,0.350993,-0.492808,0.000000,0.000000,0.000000,-1,-3.595049,1.331698,-0.111687,0.148358,-0.239085,-0.185262
"2018-06-07 01:01:49.961 +0000",1528333309.961476,1.044624,-0.375174,0.688611,0.804588,0.366435,-0.467294,0.000000,0.000000,0.000000,-1,-3.002483,1.689829,-0.042085,0.028984,-0.133937,-0.323417
"2018-06-07 01:01:49.972 +0000",1528333309.971550,1.067450,-0.389935,0.721276,0.810217,0.380129,-0.446150,0.000000,0.000000,0.000000,-1,-3.433028,0.848405,0.323248,0.369806,-0.241213,-0.004945
"2018-06-07 01:01:49.982 +0000",1528333309.981624,1.088704,-0.401110,0.761245,0.815701,0.390440,-0.426835,0.000000,0.000000,0.000000,-1,-3.851044,0.522048,0.908407,0.369357,-0.239134,0.130280
"2018-06-07 01:01:49.992 +0000",1528333309.991698,1.110993,-0.407850,0.807862,0.822635,0.396636,-0.407372,0.000000,0.000000,0.000000,-1,-4.155502,0.335563,1.460368,0.295270,-0.237975,0.072060
"2018-06-07 01:01:50.002 +0000",1528333310.001772,1.132642,-0.409478,0.857199,0.830674,0.398131,-0.389194,0.000000,0.000000,0.000000,-1,-4.041208,0.157224,1.917812,0.236739,-0.428648,-0.100033
"2018-06-07 01:01:50.012 +0000",1528333310.011846,1.150622,-0.404041,0.895137,0.839502,0.393137,-0.375074,0.000000,0.000000,0.000000,-1,-2.399404,0.325513,1.880121,0.190482,-0.430948,-0.736483
"2018-06-07 01:01:50.022 +0000",1528333310.021920,1.161618,-0.394625,0.908945,0.846933,0.384462,-0.367277,0.000000,0.000000,0.000000,-1,-0.264145,0.645107,1.166235,-0.197977,-0.121767,-1.217196
"2018-06-07 01:01:50.032 +0000",1528333310.031995,1.172607,-0.386351,0.904844,0.853821,0.376811,-0.359169,0.000000,0.000000,0.000000,-1,0.859209,1.502034,0.442246,-0.388871,0.160375,-0.717201
"2018-06-07 01:01:50.042 +0000",1528333310.042069,1.191817,-0.381367,0.897508,0.862297,0.372190,-0.343392,0.000000,0.000000,0.000000,-1,0.728165,2.340411,0.169620,-0.191261,0.213610,0.176247
"2018-06-07 01:01:50.052 +0000",1528333310.052143,1.216466,-0.378924,0.896361,0.871349,0.369921,-0.322350,0.000000,0.000000,0.000000,-1,0.234164,2.065888,0.385082,0.187443,0.108870,0.339669
"2018-06-07 01:01:50.062 +0000",1528333310.062217,1.231515,-0.373333,0.898648,0.878038,0.364721,-0.309884,0.000000,0.000000,0.000000,-1,-0.069536,1.189011,0.649986,0.276641,0.094981,0.098825
"2018-06-07 01:01:50.072 +0000",1528333310.072291,1.240186,-0.367071,0.902446,0.882834,0.358883,-0.302995,0.000000,0.000000,0.000000,-1,-0.131322,0.606820,0.697914,0.071038,0.045582,-0.087645
"2018-06-07 01:01:50.082 +0000",1528333310.082365,1.246778,-0.361939,0.905353,0.886547,0.354088,-0.297751,0.000000,0.000000,0.000000,-1,-0.079466,0.580290,0.513783,-0.122738,-0.076912,-0.144830
"2018-06-07 01:01:50.092 +0000",1528333310.092439,1.255845,-0.358949,0.907617,0.890213,0.351290,-0.290028,0.000000,0.000000,0.000000,-1,-0.124388,0.907078,0.305085,-0.159607,-0.115206,-0.040447
"2018-06-07 01:01:50.103 +0000",1528333310.102513,1.267248,-0.357122,0.910740,0.894073,0.349579,-0.280049,0.000000,0.000000,0.000000,-1,-0.257540,1.030951,0.258422,-0.027099,-0.112107,0.068837
"2018-06-07 01:01:50.113 +0000",1528333310.112587,1.276927,-0.355290,0.915531,0.897353,0.347862,-0.271567,0.000000,0.000000,0.000000,-1,-0.412087,0.686661,0.320162,0.053330,-0.109230,0.092048
"2018-06-07 01:01:50.123 +0000",1528333310.122662,1.283304,-0.353346,0.921713,0.899714,0.346039,-0.266030,0.000000,0.000000,0.000000,-1,-0.513954,0.362376,0.358175,-0.009470,-0.064774,0.066857
"2018-06-07 01:01:50.133 +0000",1528333310.132736,1.289982,-0.350781,0.928381,0.902320,0.343631,-0.260262,0.000000,0.000000,0.000000,-1,-0.522073,0.488244,0.442460,-0.032233,-0.052097,0.107293
"2018-06-07 01:01:50.143 +0000",1528333310.142810,1.298568,-0.347492,0.934935,0.905605,0.340541,-0.252807,0.000000,0.000000,0.000000,-1,-0.495258,0.665980,0.484866,0.045521,-0.046519,0.194473
"2018-06-07 01:01:50.153 +0000",1528333310.152884,1.307974,-0.344551,0.941236,0.908906,0.337774,-0.244537,0.000000,0.000000,0.000000,-1,-0.483206,0.739874,0.410834,0.078353,-0.063604,0.237472
"2018-06-07 01:01:50.163 +0000",1528333310.162958,1.317889,-0.342836,0.945804,0.911845,0.336159,-0.235658,0.000000,0.000000,0.000000,-1,-0.322218,0.871753,0.220460,0.037999,-0.080864,0.224367
"2018-06-07 01:01:50.173 +0000",1528333310.173032,1.328867,-0.342622,0.947865,0.914447,0.335958,-0.225652,0.000000,0.000000,0.000000,-1,-0.138062,1.059746,0.015137,-0.004016,-0.080114,0.209081
"2018-06-07 01:01:50.183 +0000",1528333310.183106,1.339446,-0.343952,0.947467,0.916348,0.337210,-0.215862,0.000000,0.000000,0.000000,-1,0.056733,1.057830,-0.184309,0.024570,-0.129248,0.211422
"2018-06-07 01:01:50.193 +0000",1528333310.193180,1.350281,-0.345817,0.945150,0.918017,0.338966,-0.205783,0.000000,0.000000,0.000000,-1,0.189246,1.216452,-0.226101,0.116758,-0.158317,0.201755
"2018-06-07 01:01:50.203 +0000",1528333310.203254,1.364719,-0.347008,0.943172,0.920497,0.340086,-0.192425,0.000000,0.000000,0.000000,-1,0.132470,1.591321,-0.128073,0.251485,-0.045347,0.349743
"2018-06-07 01:01:50.213 +0000",1528333310.213329,1.382146,-0.347363,0.942540,0.923592,0.340419,-0.176333,0.000000,0.000000,0.000000,-1,0.023218,1.787038,-0.013235,0.319084,0.074651,0.433795
"2018-06-07 01:01:50.223 +0000",1528333310.223403,1.399143,-0.346584,0.943244,0.926716,0.339687,-0.160655,0.000000,0.000000,0.000000,-1,-0.079452,1.575442,0.115462,0.379833,0.128331,0.443874
"2018-06-07 01:01:50.233 +0000",1528333310.233477,1.412083,-0.344976,0.945579,0.929256,0.338174,-0.148737,0.000000,0.000000,0.000000,-1,-0.227870,1.077306,0.218690,0.490315,0.231620,0.478677
"2018-06-07 01:01:50.244 +0000",1528333310.243550,1.419486,-0.342089,0.949694,0.931292,0.335456,-0.142000,0.000000,0.000000,0.000000,-1,-0.374587,0.421895,0.393526,0.594235,0.319909,0.447328
"2018-06-07 01:01:50.254 +0000",1528333310.253624,1.420962,-0.336460,0.956238,0.933353,0.330148,-0.140905,0.000000,0.000000,0.000000,-1,-0.571997,-0.212415,0.738490,0.528957,0.269385,0.178838
"2018-06-07 01:01:50.264 +0000",1528333310.263698,1.418566,-0.327183,0.965433,0.936000,0.321377,-0.143598,0.000000,0.000000,0.000000,-1,-0.765853,-0.630695,1.141084,0.362508,0.105259,-0.112993
"2018-06-07 01:01:50.274 +0000",1528333310.273772,1.413542,-0.314637,0.977961,0.939175,0.309471,-0.148919,0.000000,0.000000,0.000000,-1,-1.047729,-0.959042,1.505418,0.326145,-0.047279,-0.194877
"2018-06-07 01:01:50.284 +0000",1528333310.283846,1.411515,-0.297377,0.995241,0.944005,0.293014,-0.151647,0.000000,0.000000,0.000000,-1,-1.463678,-0.517148,2.136909,0.556071,-0.116714,-0.035990
"2018-06-07 01:01:50.294 +0000",1528333310.293920,1.437848,-0.267374,1.034872,0.955957,0.264200,-0.127847,0.000000,0.000000,0.000000,-1,-4.067034,2.218588,3.795490,1.570212,-0.509058,1.381585
"2018-06-07 01:01:50.304 +0000",1528333310.303995,1.480095,-0.246618,1.075280,0.965757,0.244126,-0.087836,0.000000,0.000000,0.000000,-1,-2.975477,3.282522,1.852395,0.398287,0.215926,1.020072
"2018-06-07 01:01:50.314 +0000",1528333310.314069,1.507369,-0.241504,1.080856,0.969027,0.239163,-0.061545,0.000000,0.000000,0.000000,-1,0.118205,2.300953,0.274164,-1.560946,0.038455,-1.353738
"2018-06-07 01:01:50.324 +0000",1528333310.324143,1.520880,-0.240167,1.078319,0.970088,0.237865,-0.048464,0.000000,0.000000,0.000000,-1,0.151027,1.101848,0.114632,-1.598354,-0.369670,-0.151030
"2018-06-07 01:01:50.334 +0000",1528333310.334217,1.522677,-0.239640,1.076594,0.970299,0.237353,-0.046727,0.000000,0.000000,0.000000,-1,0.245208,-0.045797,0.028253,-1.401131,-0.008333,0.321720
"2018-06-07 01:01:50.344 +0000",1528333310.344291,1.515793,-0.239356,1.071536,0.970022,0.237077,-0.053409,0.000000,0.000000,0.000000,-1,0.536026,-0.679323,-0.014054,-1.003652,-0.138963,-0.139066
"2018-06-07 01:01:50.354 +0000",1528333310.354365,1.506550,-0.239909,1.066500,0.969356,0.237614,-0.062363,0.000000,0.000000,0.000000,-1,0.453852,-0.818603,-0.101399,-0.589854,-0.135334,0.066285
"2018-06-07 01:01:50.364 +0000",1528333310.364439,1.496874,-0.240897,1.061675,0.968472,0.238574,-0.071722,0.000000,0.000000,0.000000,-1,0.469862,-0.842583,-0.131623,-0.223828,-0.074710,0.109732
"2018-06-07 01:01:50.375 +0000",1528333310.374513,1.488490,-0.241939,1.056297,0.967589,0.239586,-0.079819,0.000000,0.000000,0.000000,-1,0.512956,-0.651336,-0.159132,-0.083174,-0.141579,0.146882
"2018-06-07 01:01:50.385 +0000",1528333310.384587,1.481394,-0.244455,1.050976,0.966394,0.242028,-0.086629,0.000000,0.000000,0.000000,-1,0.480754,-0.571576,-0.352443,-0.127085,-0.146401,0.269826
"2018-06-07 01:01:50.395 +0000",1528333310.394662,1.473343,-0.250289,1.045469,0.964244,0.247684,-0.094268,0.000000,0.000000,0.000000,-1,0.471259,-0.711592,-0.740060,-0.248271,-0.255985,0.244109
"2018-06-07 01:01:50.405 +0000",1528333310.404736,1.462875,-0.262307,1.039100,0.960175,0.259310,-0.104028,0.000000,0.000000,0.000000,-1,0.499952,-0.934722,-1.439945,-0.454850,-0.423113,0.208627
"2018-06-07 01:01:50.415 +0000",1528333310.414810,1.450336,-0.282389,1.029395,0.953433,0.278651,-0.115410,0.000000,0.000000,0.000000,-1,0.800745,-0.954394,-2.309812,-0.537127,-0.600947,0.095314
"2018-06-07 01:01:50.425 +0000",1528333310.424884,1.440913,-0.307853,1.012057,0.944959,0.303013,-0.123430,0.000000,0.000000,0.000000,-1,1.511678,-0.185234,-2.796469,-0.329176,-0.683125,-0.204253
"2018-06-07 01:01:50.435 +0000",1528333310.434958,1.438943,-0.331119,0.987850,0.937471,0.325101,-0.124330,0.000000,0.000000,0.000000,-1,2.067061,0.771111,-2.472266,0.247618,-0.513471,-0.255965
"2018-06-07 01:01:50.445 +0000",1528333310.445032,1.440790,-0.352602,0.959532,0.930557,0.345341,-0.121664,0.000000,0.000000,0.000000,-1,2.446400,1.208226,-2.548304,0.411453,-0.219334,0.034506
"2018-06-07 01:01:50.455 +0000",1528333310.455106,1.441939,-0.376405,0.929365,0.922282,0.367579,-0.119505,0.000000,0.000000,0.000000,-1,2.402057,1.136060,-2.646296,0.093267,-0.122248,0.244825
"2018-06-07 01:01:50.465 +0000",1528333310.465180,1.437778,-0.393283,0.906850,0.915496,0.383222,-0.122501,0.000000,0.000000,0.000000,-1,1.602342,0.087850,-1.642861,0.729569,0.179644,0.606968
"2018-06-07 01:01:50.475 +0000",1528333310.475255,1.425707,-0.404571,0.892263,0.909612,0.393624,-0.132909,0.000000,0.000000,0.000000,-1,1.054333,-0.806526,-1.293547,0.635996,0.356009,0.657430
"2018-06-07 01:01:50.485 +0000",1528333310.485329,1.411941,-0.418722,0.882063,0.902106,0.406593,-0.144522,0.000000,0.000000,0.000000,-1,0.605191,-0.966768,-1.599544,-0.170401,0.218635,0.240317
"2018-06-07 01:01:50.495 +0000",1528333310.495403,1.397591,-0.434612,0.872776,0.893462,0.421058,-0.156319,0.000000,0.000000,0.000000,-1,0.597795,-1.076073,-1.717090,-0.067748,0.119255,-0.164757
"2018-06-07 01:01:50.505 +0000",1528333310.505477,1.376402,-0.449885,0.858938,0.883536,0.434862,-0.173951,0.000000,0.000000,0.000000,-1,1.088827,-1.686195,-1.710309,0.141046,0.020644,-0.454238
"2018-06-07 01:01:50.516 +0000",1528333310.515551,1.347772,-0.463437,0.839459,0.872366,0.447025,-0.197851,0.000000,0.000000,0.000000,-1,1.484848,-2.014572,-1.675599,0.040262,0.083553,-0.364802
"2018-06-07 01:01:50.526 +0000",1528333310.525625,1.320275,-0.478040,0.818987,0.860181,0.460040,-0.220118,0.000000,0.000000,0.000000,-1,1.373146,-1.717385,-1.938012,-0.234235,0.282102,0.249476
"2018-06-07 01:01:50.536 +0000",1528333310.535699,1.296063,-0.499225,0.796642,0.845028,0.478745,-0.238180,0.000000,0.000000,0.000000,-1,1.369599,-1.215526,-2.769093,-0.426083,0.163512,0.429480
"2018-06-07 01:01:50.546 +0000",1528333310.545773,1.276658,-0.527505,0.769955,0.826956,0.503379,-0.250505,0.000000,0.000000,0.000000,-1,1.400555,-0.438548,-3.476829,-0.393469,-0.013984,0.234362
"2018-06-07 01:01:50.556 +0000",1528333310.555847,1.262002,-0.558159,0.744075,0.808110,0.529626,-0.257786,0.000000,0.000000,0.000000,-1,1.134979,-0.070158,-3.542915,0.050929,0.025169,0.372746
"2018-06-07 01:01:50.566 +0000",1528333310.565922,1.248398,-0.585641,0.720387,0.790422,0.552734,-0.264043,0.000000,0.000000,0.000000,-1,1.016696,-0.050591,-3.051018,0.479873,0.020905,0.481023
"2018-06-07 01:01:50.576 +0000",1528333310.575996,1.236063,-0.608162,0.698477,0.775149,0.571360,-0.269614,0.000000,0.000000,0.000000,-1,0.973527,-0.006358,-2.632364,0.568342,0.214956,0.564276
"2018-06-07 01:01:50.586 +0000",1528333310.586070,1.222835,-0.630273,0.676509,0.759451,0.589365,-0.275468,0.000000,0.000000,0.000000,-1,0.924515,-0.048038,-2.673248,0.271234,0.200201,0.547044
"2018-06-07 01:01:50.596 +0000",1528333310.596144,1.209990,-0.651841,0.655572,0.743782,0.606651,-0.280647,0.000000,0.000000,0.000000,-1,0.780695,-0.034691,-2.548105,0.184425,-0.014808,0.414253
"2018-06-07 01:01:50.606 +0000",1528333310.606218,1.196397,-0.671819,0.635288,0.728472,0.622411,-0.286240,0.000000,0.000000,0.000000,-1,0.790008,-0.144050,-2.379568,0.171659,-0.134297,0.207123
"2018-06-07 01:01:50.616 +0000",1528333310.616292,1.179096,-0.690047,0.613778,0.712805,0.636573,-0.294420,0.000000,0.000000,0.000000,-1,0.875775,-0.460330,-2.293557,0.097956,-0.155967,0.069002
"2018-06-07 01:01:50.626 +0000",1528333310.626366,1.157828,-0.710458,0.590722,0.694335,0.652181,-0.304233,0.000000,0.000000,0.000000,-1,0.778281,-0.667464,-2.702681,-0.206802,-0.157644,0.153034
"2018-06-07 01:01:50.636 +0000",1528333310.636440,1.135243,-0.734469,0.566211,0.672894,0.670193,-0.313138,0.000000,0.000000,0.000000,-1,0.683846,-0.606693,-2.859333,-0.453106,-0.305554,0.180829
"2018-06-07 01:01:50.647 +0000",1528333310.646515,1.110652,-0.747346,0.545439,0.657203,0.679694,-0.325729,0.000000,0.000000,0.000000,-1,0.889434,-1.258353,-1.511764,0.509011,0.130059,0.088058
"2018-06-07 01:01:50.657 +0000",1528333310.656589,1.077268,-0.756517,0.524568,0.640448,0.686393,-0.344515,0.000000,0.000000,0.000000,-1,0.907332,-2.026544,-1.559217,0.427042,-0.100974,0.240633
"2018-06-07 01:01:50.667 +0000",1528333310.666663,1.046200,-0.767107,0.505558,0.623111,0.694056,-0.360582,0.000000,0.000000,0.000000,-1,0.590892,-1.614606,-1.572353,0.012647,-0.163920,0.298952
"2018-06-07 01:01:50.677 +0000",1528333310.676737,1.021489,-0.779143,0.489740,0.606842,0.702670,-0.371480,0.000000,0.000000,0.000000,-1,0.284426,-1.374795,-1.632266,-0.108582,0.192075,0.220692
"2018-06-07 01:01:50.687 +0000",1528333310.686811,0.994648,-0.794200,0.475564,0.587715,0.713303,-0.381825,0.000000,0.000000,0.000000,-1,-0.049749,-1.745909,-1.838028,-0.110938,0.093673,0.223332
"2018-06-07 01:01:50.697 +0000",1528333310.696885,0.967727,-0.811674,0.463015,0.566870,0.725441,-0.390376,0.000000,0.000000,0.000000,-1,-0.297732,-1.772443,-1.958009,-0.008216,0.059990,0.216579
"2018-06-07 01:01:50.707 +0000",1528333310.706959,0.936650,-0.838012,0.450085,0.538885,0.743315,-0.396341,0.000000,0.000000,0.000000,-1,-1.076489,-2.311756,-2.925876,-0.155798,-0.284101,0.312982
"2018-06-07 01:01:50.717 +0000",1528333310.717033,0.903849,-0.866551,0.439455,0.508717,0.762100,-0.400512,0.000000,0.000000,0.000000,-1,-1.021232,-2.504656,-2.438221,0.015956,-0.279236,0.480651
"2018-06-07 01:01:50.727 +0000",1528333310.727107,0.869287,-0.881397,0.425403,0.485877,0.771628,-0.410503,0.000000,0.000000,0.000000,-1,0.002815,-2.242234,-1.509369,0.557230,0.475274,-0.318302
"2018-06-07 01:01:50.737 +0000",1528333310.737182,0.839674,-0.889709,0.409347,0.468718,0.776889,-0.420412,0.000000,0.000000,0.000000,-1,0.216487,-1.501733,-1.249550,0.402116,0.185209,0.017306
"2018-06-07 01:01:50.747 +0000",1528333310.747256,0.819776,-0.898131,0.395333,0.455461,0.782164,-0.425175,0.000000,0.000000,0.000000,-1,0.044040,-0.726365,-1.183436,0.350447,-0.072874,0.414204
"2018-06-07 01:01:50.757 +0000",1528333310.757330,0.802991,-0.905481,0.381893,0.444113,0.786722,-0.428755,0.000000,0.000000,0.000000,-1,0.128125,-0.638805,-1.065053,0.258356,0.147421,0.262129
"2018-06-07 01:01:50.767 +0000",1528333310.767404,0.785978,-0.911401,0.368630,0.433452,0.790363,-0.432949,0.000000,0.000000,0.000000,-1,0.173548,-0.622635,-0.963999,0.075688,0.293133,0.196972
"2018-06-07 01:01:50.777 +0000",1528333310.777478,0.772286,-0.915656,0.356211,0.425133,0.792963,-0.436430,0.000000,0.000000,0.000000,-1,0.255815,-0.279587,-0.777103,0.080040,0.283591,0.137984
"2018-06-07 01:01:50.788 +0000",1528333310.787552,0.763990,-0.917128,0.345656,0.420690,0.793858,-0.439099,0.000000,0.000000,0.000000,-1,0.365615,0.105923,-0.487960,0.213038,0.295329,0.104138
"2018-06-07 01:01:50.798 +0000",1528333310.797626,0.762171,-0.915968,0.337767,0.420526,0.793153,-0.440529,0.000000,0.000000,0.000000,-1,0.430033,0.543908,-0.177048,0.184683,0.322829,0.184517
"2018-06-07 01:01:50.808 +0000",1528333310.807700,0.766598,-0.911218,0.333147,0.425081,0.790251,-0.441372,0.000000,0.000000,0.000000,-1,0.571652,0.877480,0.215133,0.177245,0.294909,0.154766
"2018-06-07 01:01:50.818 +0000",1528333310.817775,0.775622,-0.903612,0.330651,0.433242,0.785567,-0.441797,0.000000,0.000000,0.000000,-1,0.672268,1.164261,0.481421,0.128190,0.264207,0.131525
"2018-06-07 01:01:50.828 +0000",1528333310.827849,0.787255,-0.895233,0.329227,0.443000,0.780355,-0.441357,0.000000,0.000000,0.000000,-1,0.622472,1.300082,0.520653,0.035333,0.232295,0.182736
"2018-06-07 01:01:50.838 +0000",1528333310.837923,0.802421,-0.888703,0.330116,0.453296,0.776255,-0.438121,0.000000,0.000000,0.000000,-1,0.330485,1.483794,0.497117,-0.000553,0.154882,0.286860
"2018-06-07 01:01:50.848 +0000",1528333310.847997,0.822696,-0.884478,0.335658,0.464486,0.773584,-0.431068,0.000000,0.000000,0.000000,-1,-0.058820,1.625124,0.568336,0.004203,0.142126,0.266639
"2018-06-07 01:01:50.858 +0000",1528333310.858071,0.847806,-0.881318,0.346188,0.476993,0.771578,-0.420885,0.000000,0.000000,0.000000,-1,-0.335160,1.658874,0.714279,0.074307,0.180494,0.164492
"2018-06-07 01:01:50.868 +0000",1528333310.868145,0.864977,-0.879267,0.355338,0.485352,0.770271,-0.413659,0.000000,0.000000,0.000000,-1,-0.272012,0.689906,0.406908,0.115646,0.057365,0.085671
"2018-06-07 01:01:50.878 +0000",1528333310.878219,0.858498,-0.882974,0.355052,0.480497,0.772631,-0.414925,0.000000,0.000000,0.000000,-1,-0.231363,-1.083205,-0.564272,-0.147642,-0.390337,0.127328
"2018-06-07 01:01:50.888 +0000",1528333310.888293,0.833490,-0.895215,0.349178,0.462936,0.780343,-0.420421,0.000000,0.000000,0.000000,-1,-0.711154,-2.229848,-1.271056,-0.195403,-0.615579,0.229106
"2018-06-07 01:01:50.898 +0000",1528333310.898368,0.816886,-0.913245,0.353088,0.445561,0.791491,-0.418349,0.000000,0.000000,0.000000,-1,-1.597772,-1.779920,-1.035378,0.065303,-0.235522,0.431792
"2018-06-07 01:01:50.908 +0000",1528333310.908442,0.812403,-0.932061,0.371562,0.432792,0.802850,-0.410026,0.000000,0.000000,0.000000,-1,-2.226622,-2.011153,-0.498939,0.315530,0.153250,0.106147
"2018-06-07 01:01:50.919 +0000",1528333310.918516,0.809278,-0.952327,0.396050,0.419644,0.814767,-0.400065,0.000000,0.000000,0.000000,-1,-2.468940,-2.393880,-0.491968,0.237781,0.130515,-0.097325
"2018-06-07 01:01:50.929 +0000",1528333310.928590,0.801459,-0.974208,0.419547,0.403597,0.827257,-0.390837,0.000000,0.000000,0.000000,-1,-2.443768,-2.725480,-0.719951,0.025938,0.101851,-0.074175
"2018-06-07 01:01:50.939 +0000",1528333310.938664,0.791297,-0.997870,0.436704,0.385571,0.840318,-0.381049,0.000000,0.000000,0.000000,-1,-2.238360,-2.262137,-1.127819,-0.018597,0.120848,0.149344
"2018-06-07 01:01:50.949 +0000",1528333310.948738,0.774513,-1.021078,0.440559,0.365381,0.852672,-0.373424,0.000000,0.000000,0.000000,-1,-1.592216,-1.971852,-1.598511,0.086706,0.287358,0.135570
"2018-06-07 01:01:50.959 +0000",1528333310.958812,0.743842,-1.041013,0.429416,0.342179,0.862917,-0.371869,0.000000,0.000000,0.000000,-1,-0.880611,-2.129369,-1.784534,0.117187,0.423125,-0.132068
"2018-06-07 01:01:50.969 +0000",1528333310.968886,0.717524,-1.052499,0.419284,0.325736,0.868664,-0.373253,0.000000,0.000000,0.000000,-1,-0.411459,-1.360706,-0.739997,0.173104,-0.036617,0.085029
"2018-06-07 01:01:50.979 +0000",1528333310.978961,0.727555,-1.051309,0.426534,0.330150,0.868074,-0.370738,0.000000,0.000000,0.000000,-1,-0.035042,0.782031,0.585191,0.493351,-1.021150,0.834498
"2018-06-07 01:01:50.989 +0000",1528333310.989035,0.742780,-1.044927,0.434814,0.339497,0.864888,-0.369741,0.000000,0.000000,0.000000,-1,0.225791,0.614329,0.697048,0.241543,-0.457372,0.298620
"2018-06-07 01:01:50.999 +0000",1528333310.999109,0.745422,-1.041631,0.437900,0.342404,0.863229,-0.370936,0.000000,0.000000,0.000000,-1,0.092806,-0.136987,0.189614,-0.075971,0.214271,-0.119588
"2018-06-07 01:01:51.009 +0000",1528333311.009183,0.741177,-1.042981,0.435291,0.340040,0.863909,-0.371527,0.000000,0.000000,0.000000,-1,-0.034793,-0.191342,-0.284611,-0.024335,0.389127,0.089102
"2018-06-07 01:01:51.019 +0000",1528333311.019257,0.735410,-1.045705,0.430021,0.336312,0.865278,-0.371735,0.000000,0.000000,0.000000,-1,-0.004777,-0.074504,-0.377921,0.139869,0.192507,0.143067
"2018-06-07 01:01:51.029 +0000",1528333311.029331,0.731225,-1.046958,0.423855,0.334029,0.865906,-0.372332,0.000000,0.000000,0.000000,-1,0.159192,0.167077,-0.286164,0.143144,0.018860,0.197649
"2018-06-07 01:01:51.039 +0000",1528333311.039405,0.727942,-1.046026,0.416412,0.333342,0.865439,-0.374029,0.000000,0.000000,0.000000,-1,0.370447,0.361573,-0.191425,0.092959,0.016458,0.212362
"2018-06-07 01:01:51.049 +0000",1528333311.049479,0.724366,-1.043292,0.407634,0.333569,0.864066,-0.376990,0.000000,0.000000,0.000000,-1,0.523356,0.401298,-0.138953,0.063877,0.036081,0.195334
"2018-06-07 01:01:51.060 +0000",1528333311.059553,0.720177,-1.040420,0.398619,0.333622,0.862617,-0.380247,0.000000,0.000000,0.000000,-1,0.488885,0.332111,-0.155210,0.044766,0.059594,0.172361
"2018-06-07 01:01:51.070 +0000",1528333311.069628,0.716930,-1.038911,0.392171,0.333240,0.861853,-0.382309,0.000000,0.000000,0.000000,-1,0.261954,0.193057,-0.130355,0.032757,0.069208,0.158646
"2018-06-07 01:01:51.080 +0000",1528333311.079702,0.716345,-1.037104,0.391404,0.334039,0.860934,-0.383678,0.000000,0.000000,0.000000,-1,0.144887,-0.105753,0.105685,0.090903,-0.194171,0.131573
"2018-06-07 01:01:51.090 +0000",1528333311.089776,0.707670,-1.035833,0.387756,0.331409,0.860288,-0.387392,0.000000,0.000000,0.000000,-1,0.211282,-0.720469,-0.121065,0.223019,-0.629895,0.058840
"2018-06-07 01:01:51.100 +0000",1528333311.099850,0.694644,-1.037318,0.383939,0.325516,0.861043,-0.390695,0.000000,0.000000,0.000000,-1,-0.062560,-0.997277,-0.262152,0.204132,-0.170354,0.182763
"2018-06-07 01:01:51.110 +0000",1528333311.109924,0.681205,-1.041271,0.382091,0.318091,0.863047,-0.392386,0.000000,0.000000,0.000000,-1,-0.287546,-1.250065,-0.339819,0.263437,0.113271,0.178946
"2018-06-07 01:01:51.120 +0000",1528333311.119998,0.665218,-1.045989,0.380249,0.309260,0.865420,-0.394214,0.000000,0.000000,0.000000,-1,-0.311230,-1.491507,-0.371661,0.330907,-0.127124,0.031711
"2018-06-07 01:01:51.130 +0000",1528333311.130072,0.647384,-1.050687,0.378816,0.299726,0.867765,-0.396418,0.000000,0.000000,0.000000,-1,-0.324116,-1.686103,-0.310885,0.248629,-0.193143,0.075236
"2018-06-07 01:01:51.140 +0000",1528333311.140146,0.631775,-1.053446,0.380325,0.292086,0.869133,-0.399114,0.000000,0.000000,0.000000,-1,-0.244404,-1.684892,-0.022792,0.225293,-0.260597,0.158636
"2018-06-07 01:01:51.150 +0000",1528333311.150221,0.619385,-1.054822,0.387004,0.286425,0.869812,-0.401729,0.000000,0.000000,0.000000,-1,-0.344071,-1.861987,0.257665,0.279050,-0.449463,0.191554
"2018-06-07 01:01:51.160 +0000",1528333311.160295,0.613477,-1.056642,0.403794,0.283135,0.870709,-0.402119,0.000000,0.000000,0.000000,-1,-0.740033,-2.100943,0.695664,0.305122,-0.495083,0.234685
"2018-06-07 01:01:51.170 +0000",1528333311.170369,0.619416,-1.059779,0.436006,0.283931,0.872247,-0.398205,0.000000,0.000000,0.000000,-1,-1.299625,-2.213398,1.225836,0.266118,-0.411966,0.256329
"2018-06-07 01:01:51.180 +0000",1528333311.180443,0.692177,-1.095204,0.526058,0.292216,0.889022,-0.352491,0.000000,0.000000,0.000000,-1,-1.497612,-1.727670,1.234156,0.023473,-0.040023,0.233274
"2018-06-07 01:01:51.191 +0000",1528333311.190517,0.703767,-1.100812,0.553351,0.293051,0.891575,-0.345274,0.000000,0.000000,0.000000,-1,-1.087772,-1.161726,0.316263,-0.198141,0.463146,0.182859
"2018-06-07 01:01:51.201 +0000",1528333311.200591,0.692195,-1.109280,0.555274,0.284207,0.895378,-0.342817,0.000000,0.000000,0.000000,-1,-0.586029,-1.440389,-0.702181,-0.076382,0.478477,0.049101
"2018-06-07 01:01:51.211 +0000",1528333311.210665,0.663141,-1.119080,0.542722,0.268713,0.899699,-0.343997,0.000000,0.000000,0.000000,-1,-0.397774,-1.830120,-1.096357,0.188196,0.168706,0.104235
"2018-06-07 01:01:51.221 +0000",1528333311.220739,0.634197,-1.128583,0.532054,0.253568,0.903807,-0.344726,0.000000,0.000000,0.000000,-1,-0.509950,-1.977543,-0.831920,0.303882,-0.100233,0.236175
"2018-06-07 01:01:51.231 +0000",1528333311.230814,0.612417,-1.136707,0.534644,0.241771,0.907253,-0.344147,0.000000,0.000000,0.000000,-1,-0.797599,-2.567070,-0.230615,0.333058,-0.326534,0.082260
"2018-06-07 01:01:51.241 +0000",1528333311.240888,0.594925,-1.144604,0.550229,0.231692,0.910546,-0.342378,0.000000,0.000000,0.000000,-1,-1.074967,-3.346655,0.149607,0.272962,-0.291665,0.000734
"2018-06-07 01:01:51.251 +0000",1528333311.250962,0.572939,-1.153437,0.574569,0.219740,0.914162,-0.340618,0.000000,0.000000,0.000000,-1,-1.338411,-4.822927,0.443869,0.234758,-0.166100,-0.117680
"2018-06-07 01:01:51.261 +0000",1528333311.261036,0.584779,-1.183186,0.644028,0.208648,0.925815,-0.315169,0.000000,0.000000,0.000000,-1,-1.320118,-5.900156,0.793505,0.221543,-0.274478,-0.251313
"2018-06-07 01:01:51.271 +0000",1528333311.271110,0.558683,-1.191946,0.676296,0.196047,0.929090,-0.313617,0.000000,0.000000,0.000000,-1,-1.421632,-5.348823,0.403807,-0.017916,0.128679,0.202426
"2018-06-07 01:01:51.281 +0000",1528333311.281184,0.534287,-1.205097,0.701363,0.182100,0.933874,-0.307763,0.000000,0.000000,0.000000,-1,-1.634938,-4.566301,0.045155,-0.057253,0.326929,0.508614
"2018-06-07 01:01:51.291 +0000",1528333311.291258,0.521348,-1.220360,0.736565,0.170984,0.939223,-0.297698,0.000000,0.000000,0.000000,-1,-2.033791,-4.631584,0.427732,0.243567,0.128740,0.283980
"2018-06-07 01:01:51.301 +0000",1528333311.301332,0.523037,-1.233042,0.790554,0.165523,0.943501,-0.287066,0.000000,0.000000,0.000000,-1,-1.898971,-4.917241,1.097795,0.463536,-0.169408,-0.001508
"2018-06-07 01:01:51.311 +0000",1528333311.311406,0.529100,-1.236259,0.840989,0.165727,0.944562,-0.283435,0.000000,0.000000,0.000000,-1,-0.832319,-3.710809,1.286024,0.332442,0.142031,-0.084454
"2018-06-07 01:01:51.321 +0000",1528333311.321481,0.549267,-1.237007,0.888925,0.171040,0.944808,-0.279433,0.000000,0.000000,0.000000,-1,-0.912848,-2.142463,1.320889,0.181239,-0.262282,0.349593
"2018-06-07 01:01:51.332 +0000",1528333311.331555,0.579380,-1.237482,0.934260,0.179131,0.944963,-0.273782,0.000000,0.000000,0.000000,-1,-0.803459,-1.065702,1.167802,0.052788,-0.231264,0.458169
"2018-06-07 01:01:51.342 +0000",1528333311.341630,0.607348,-1.237516,0.974239,0.186698,0.944974,-0.268639,0.000000,0.000000,0.000000,-1,-0.684151,-0.987050,1.077403,0.019478,-0.016752,0.217934
"2018-06-07 01:01:51.352 +0000",1528333311.351703,0.634320,-1.234652,1.012535,0.195478,0.944033,-0.265685,0.000000,0.000000,0.000000,-1,-0.431175,-0.847515,1.217064,0.153170,-0.146899,0.123153
"2018-06-07 01:01:51.362 +0000",1528333311.361777,0.660956,-1.228753,1.045772,0.205900,0.942071,-0.264776,0.000000,0.000000,0.000000,-1,-0.117517,-0.343818,1.205979,0.086474,-0.021295,0.143103
"2018-06-07 01:01:51.372 +0000",1528333311.371851,0.680968,-1.221616,1.067461,0.215385,0.939653,-0.265821,0.000000,0.000000,0.000000,-1,0.174162,0.050076,0.924637,-0.042502,0.158262,0.052762
"2018-06-07 01:01:51.382 +0000",1528333311.381925,0.692462,-1.214653,1.076432,0.222597,0.937249,-0.268356,0.000000,0.000000,0.000000,-1,0.387244,0.395520,0.626125,-0.055300,0.207664,0.016388
"2018-06-07 01:01:51.392 +0000",1528333311.391999,0.700464,-1.207094,1.078352,0.229298,0.934586,-0.271975,0.000000,0.000000,0.000000,-1,0.579130,0.682018,0.496366,0.050976,0.137451,-0.015607
"2018-06-07 01:01:51.402 +0000",1528333311.402074,0.705037,-1.199373,1.074446,0.235208,0.931812,-0.276411,0.000000,0.000000,0.000000,-1,0.690336,0.850875,0.355693,0.100424,0.078747,-0.031206
"2018-06-07 01:01:51.412 +0000",1528333311.412148,0.707443,-1.192990,1.066017,0.239734,0.929476,-0.280360,0.000000,0.000000,0.000000,-1,0.677437,1.083574,0.091791,0.126813,0.108122,-0.010107
"2018-06-07 01:01:51.422 +0000",1528333311.422222,0.703988,-1.188349,1.050303,0.241553,0.927754,-0.284471,0.000000,0.000000,0.000000,-1,0.765249,1.119884,-0.132039,0.196634,0.258022,-0.022398
"2018-06-07 01:01:51.432 +0000",1528333311.432296,0.708069,-1.181115,1.039488,0.247070,0.925030,-0.288574,0.000000,0.000000,0.000000,-1,0.789356,1.491639,0.239009,0.290131,-0.050244,0.011108
"2018-06-07 01:01:51.442 +0000",1528333311.442370,0.717511,-1.173749,1.031611,0.254257,0.922207,-0.291354,0.000000,0.000000,0.000000,-1,0.769165,1.690255,0.245012,0.101410,0.045231,0.078326
"2018-06-07 01:01:51.452 +0000",1528333311.452444,0.726517,-1.165795,1.022646,0.261735,0.919102,-0.294525,0.000000,0.000000,0.000000,-1,0.835085,1.728743,0.272939,-0.001725,0.183574,0.001007
"2018-06-07 01:01:51.463 +0000",1528333311.462518,0.736809,-1.157025,1.013778,0.270158,0.915611,-0.297776,0.000000,0.000000,0.000000,-1,0.898524,1.861474,0.338795,0.052443,-0.117759,-0.004211
"2018-06-07 01:01:51.473 +0000",1528333311.472592,0.747542,-1.147030,1.004407,0.279547,0.911547,-0.301555,0.000000,0.000000,0.000000,-1,1.027127,1.925214,0.407527,0.079096,-0.232256,-0.030766
"2018-06-07 01:01:51.483 +0000",1528333311.482666,0.753438,-1.135864,0.988694,0.288266,0.906898,-0.307306,0.000000,0.000000,0.000000,-1,1.336287,2.024597,0.211340,-0.008755,-0.108498,-0.045385
"2018-06-07 01:01:51.493 +0000",1528333311.492741,0.751880,-1.124539,0.963360,0.294783,0.902069,-0.315237,0.000000,0.000000,0.000000,-1,1.605234,2.151734,-0.085784,-0.010969,0.039750,-0.033839
"2018-06-07 01:01:51.503 +0000",1528333311.502815,0.750173,-1.113519,0.934258,0.301003,0.897258,-0.322993,0.000000,0.000000,0.000000,-1,1.662456,2.560751,-0.201970,0.103980,-0.085246,0.046061
"2018-06-07 01:01:51.513 +0000",1528333311.512889,0.752446,-1.104716,0.904338,0.307123,0.893337,-0.328061,0.000000,0.000000,0.000000,-1,1.474919,2.963052,-0.449920,0.131628,0.005131,0.212857
"2018-06-07 01:01:51.523 +0000",1528333311.522963,0.757942,-1.100908,0.876987,0.311258,0.891619,-0.328837,0.000000,0.000000,0.000000,-1,0.970342,2.903258,-0.661916,0.145148,0.240019,0.345087
"2018-06-07 01:01:51.533 +0000",1528333311.533037,0.766690,-1.102065,0.857415,0.313406,0.892142,-0.325358,0.000000,0.000000,0.000000,-1,0.392617,2.481539,-0.741418,0.270151,0.118737,0.415705
"2018-06-07 01:01:51.543 +0000",1528333311.543111,0.777534,-1.106739,0.844820,0.313987,0.894244,-0.318965,0.000000,0.000000,0.000000,-1,-0.027401,2.133358,-0.713502,0.218636,-0.017077,0.262278
"2018-06-07 01:01:51.553 +0000",1528333311.553185,0.787762,-1.111929,0.835048,0.313939,0.896555,-0.312458,0.000000,0.000000,0.000000,-1,-0.051685,1.760885,-0.651067,0.082438,0.031607,-0.071590
"2018-06-07 01:01:51.563 +0000",1528333311.563260,0.792207,-1.116156,0.826466,0.312625,0.898419,-0.308396,0.000000,0.000000,0.000000,-1,-0.022496,1.000796,-0.528570,-0.018542,0.098316,-0.258971
"2018-06-07 01:01:51.573 +0000",1528333311.573334,0.790837,-1.119527,0.819421,0.310047,0.899894,-0.306693,0.000000,0.000000,0.000000,-1,-0.021658,0.351564,-0.420745,-0.013828,0.088341,-0.243158
"2018-06-07 01:01:51.583 +0000",1528333311.583408,0.789116,-1.121647,0.815401,0.308164,0.900817,-0.305881,0.000000,0.000000,0.000000,-1,-0.022978,0.171810,-0.226573,0.075808,-0.144835,-0.089596
"2018-06-07 01:01:51.593 +0000",1528333311.593482,0.788444,-1.123492,0.813014,0.306779,0.901616,-0.304915,0.000000,0.000000,0.000000,-1,-0.075531,0.131006,-0.216890,0.071410,-0.095403,0.047454
"2018-06-07 01:01:51.604 +0000",1528333311.603556,0.786284,-1.127069,0.810011,0.303835,0.903158,-0.303297,0.000000,0.000000,0.000000,-1,-0.188597,0.027124,-0.389037,0.111815,0.058817,0.095854
"2018-06-07 01:01:51.614 +0000",1528333311.613630,0.781605,-1.132863,0.805326,0.298721,0.905630,-0.300996,0.000000,0.000000,0.000000,-1,-0.285596,-0.057871,-0.604191,0.233094,0.139780,0.111757
"2018-06-07 01:01:51.624 +0000",1528333311.623704,0.823957,-1.149283,0.843128,0.300243,0.912471,-0.277938,0.000000,0.000000,0.000000,-1,-0.298222,-0.088624,-0.871011,0.291508,0.219945,0.099807
"2018-06-07 01:01:51.634 +0000",1528333311.633778,0.811872,-1.158626,0.831589,0.290664,0.916254,-0.275667,0.000000,0.000000,0.000000,-1,-0.311752,-0.184674,-1.012169,0.263016,0.305197,0.090746
"2018-06-07 01:01:51.644 +0000",1528333311.643852,0.799257,-1.168713,0.820933,0.280524,0.920247,-0.272854,0.000000,0.000000,0.000000,-1,-0.404154,-0.282668,-1.003638,0.228357,0.043253,0.093426
"2018-06-07 01:01:51.654 +0000",1528333311.653927,0.791188,-1.178262,0.810811,0.272050,0.923943,-0.268918,0.000000,0.000000,0.000000,-1,-0.375954,0.342804,-0.923361,0.153532,-0.085655,0.159513
"2018-06-07 01:01:51.664 +0000",1528333311.664001,0.835125,-1.193611,0.840001,0.273053,0.929705,-0.247163,0.000000,0.000000,0.000000,-1,-0.200552,1.253240,-0.898525,0.013294,-0.082598,0.251084
"2018-06-07 01:01:51.674 +0000",1528333311.674075,0.837242,-1.200628,0.825856,0.268722,0.932266,-0.242210,0.000000,0.000000,0.000000,-1,-0.058284,1.536691,-0.858228,-0.028259,0.000381,0.126961
"2018-06-07 01:01:51.684 +0000",1528333311.684149,0.834209,-1.207411,0.809344,0.263296,0.934699,-0.238770,0.000000,0.000000,0.000000,-1,-0.012324,1.074853,-0.904854,-0.015753,0.032434,-0.076995
"2018-06-07 01:01:51.694 +0000",1528333311.694223,0.823636,-1.214724,0.792505,0.255736,0.937273,-0.236890,0.000000,0.000000,0.000000,-1,-0.082879,0.332652,-0.926213,0.058855,-0.062456,-0.191425
"2018-06-07 01:01:51.704 +0000",1528333311.704297,0.848839,-1.227983,0.814699,0.252274,0.941813,-0.222137,0.000000,0.000000,0.000000,-1,-0.229164,-0.106674,-0.971257,0.092635,-0.113718,-0.150986
"2018-06-07 01:01:51.714 +0000",1528333311.714371,0.837608,-1.238795,0.804389,0.242183,0.945392,-0.218128,0.000000,0.000000,0.000000,-1,-0.559498,-0.139160,-1.035134,0.103078,-0.086536,-0.047894
"2018-06-07 01:01:51.724 +0000",1528333311.724445,0.842025,-1.253509,0.809296,0.232740,0.950085,-0.207769,0.000000,0.000000,0.000000,-1,-1.329261,0.035031,-0.937132,0.092577,-0.266522,0.022359
"2018-06-07 01:01:51.735 +0000",1528333311.734520,0.879623,-1.275837,0.844959,0.223982,0.956814,-0.185303,0.000000,0.000000,0.000000,-1,-2.592318,0.496387,-1.058748,-0.015059,-0.596707,0.106293
"2018-06-07 01:01:51.745 +0000",1528333311.744594,0.987063,-1.309058,0.946011,0.215909,0.965942,-0.142612,0.000000,0.000000,0.000000,-1,-3.386338,0.786403,-1.372325,-0.068295,-0.527160,0.063449
"2018-06-07 01:01:51.755 +0000",1528333311.754668,1.074954,-1.341489,1.023101,0.199925,0.973824,-0.108143,0.000000,0.000000,0.000000,-1,-3.151223,1.553706,-1.993430,-0.045796,-0.140450,0.036411
"2018-06-07 01:01:51.765 +0000",1528333311.764742,1.151380,-1.376749,1.075096,0.176114,0.981232,-0.078525,0.000000,0.000000,0.000000,-1,-2.253910,2.869563,-2.882291,0.065707,0.208038,0.275683
"2018-06-07 01:01:51.775 +0000",1528333311.774816,1.187418,-1.412712,1.079209,0.145993,0.987531,-0.058884,0.000000,0.000000,0.000000,-1,-1.210679,3.029710,-3.207984,0.395008,0.199039,0.108155
"2018-06-07 01:01:51.785 +0000",1528333311.784890,1.222524,-1.446788,1.091968,0.116257,0.992321,-0.042210,0.000000,0.000000,0.000000,-1,-0.736327,1.928604,-2.883126,0.688477,-0.071041,-0.310146
"2018-06-07 01:01:51.795 +0000",1528333311.794964,1.197804,-1.471382,1.050066,0.092417,0.995062,-0.036164,0.000000,0.000000,0.000000,-1,-0.362630,1.641662,-2.271699,0.655614,-0.040686,-0.108444
"2018-06-07 01:01:51.805 +0000",1528333311.805038,1.207218,-1.489243,1.044946,0.076125,0.996676,-0.028965,0.000000,0.000000,0.000000,-1,-0.725719,1.357315,-1.458506,0.623658,0.052152,0.020802
"2018-06-07 01:01:51.815 +0000",1528333311.815113,1.332142,-1.498916,1.154520,0.069768,0.997418,-0.016974,0.000000,0.000000,0.000000,-1,-1.165886,1.702934,-0.396983,0.557536,-0.175747,-0.018320
"2018-06-07 01:01:51.825 +0000",1528333311.825187,1.554214,-1.501722,1.358188,0.068992,0.997615,-0.001144,0.000000,0.000000,0.000000,-1,-1.215867,1.779247,0.220774,0.540994,-0.556392,-0.122849
"2018-06-07 01:01:51.835 +0000",1528333311.835261,1.722089,-1.498220,1.512576,0.071668,0.997367,0.010926,0.000000,0.000000,0.000000,-1,-1.050744,1.308639,0.250220,0.360537,-0.316551,-0.242662
"2018-06-07 01:01:51.845 +0000",1528333311.845335,1.856525,-1.495501,1.633833,0.072158,0.997167,0.021198,0.000000,0.000000,0.000000,-1,-0.904014,1.346265,0.013352,0.024812,-0.030934,0.028592
"2018-06-07 01:01:51.855 +0000",1528333311.855409,1.974142,-1.492797,1.739338,0.071652,0.996960,0.030577,0.000000,0.000000,0.000000,-1,-0.810091,1.188608,-0.024969,-0.009808,-0.039074,0.104204
"2018-06-07 01:01:51.865 +0000",1528333311.865483,2.079407,-1.490697,1.833767,0.069870,0.996794,0.038955,0.000000,0.000000,0.000000,-1,-0.576318,1.062702,0.049424,0.114869,0.070650,0.044053
"2018-06-07 01:01:51.876 +0000",1528333311.875557,2.127331,-1.488000,1.871344,0.070208,0.996574,0.043678,0.000000,0.000000,0.000000,-1,-0.332902,1.030286,0.087496,0.160978,0.266426,0.035149
"2018-06-07 01:01:51.886 +0000",1528333311.885631,2.143543,-1.486177,1.877915,0.071018,0.996422,0.045796,0.000000,0.000000,0.000000,-1,-0.089489,0.933066,0.133984,0.126064,0.318581,0.003856
"2018-06-07 01:01:51.896 +0000",1528333311.895706,2.141557,-1.484765,1.868095,0.072294,0.996302,0.046416,0.000000,0.000000,0.000000,-1,0.010237,0.745497,0.164404,0.100802,0.275519,-0.047987
"2018-06-07 01:01:51.906 +0000",1528333311.905780,2.144196,-1.484117,1.864940,0.072715,0.996246,0.046958,0.000000,0.000000,0.000000,-1,0.206360,0.483955,0.097579,0.043755,0.289384,-0.095862
"2018-06-07 01:01:51.916 +0000",1528333311.915854,2.109206,-1.485477,1.826785,0.073148,0.996363,0.043689,0.000000,0.000000,0.000000,-1,0.409767,0.250952,0.036200,0.017504,0.274573,-0.148792
"2018-06-07 01:01:51.926 +0000",1528333311.925928,2.057946,-1.488185,1.774272,0.072905,0.996590,0.038620,0.000000,0.000000,0.000000,-1,0.504568,0.067940,0.023618,0.013063,0.216743,-0.130035
"2018-06-07 01:01:51.936 +0000",1528333311.936002,1.992953,-1.489875,1.710989,0.073722,0.996728,0.033113,0.000000,0.000000,0.000000,-1,0.632094,-0.532259,0.040942,0.092095,-0.292397,0.037306
"2018-06-07 01:01:51.946 +0000",1528333311.946076,1.850465,-1.492889,1.600632,0.074788,0.996967,0.021479,0.000000,0.000000,0.000000,-1,0.506444,-3.662614,0.103116,-0.156804,0.269284,-0.409220
"2018-06-07 01:01:51.956 +0000",1528333311.956150,1.815835,-1.485371,1.583367,0.082756,0.996354,0.020694,0.000000,0.000000,0.000000,-1,-0.049700,-1.129667,0.951836,0.184456,0.233551,0.564770
"2018-06-07 01:01:51.966 +0000",1528333311.966224,1.770155,-1.476825,1.546989,0.091960,0.995588,0.018580,0.000000,0.000000,0.000000,-1,0.159214,-1.054980,0.819271,0.298498,-0.221723,-0.264796
"2018-06-07 01:01:51.976 +0000",1528333311.976299,1.690101,-1.472670,1.477475,0.097256,0.995189,0.011659,0.000000,0.000000,0.000000,-1,0.793567,-1.005394,0.409217,0.020328,-0.097042,-0.522202
"2018-06-07 01:01:51.986 +0000",1528333311.986373,1.559211,-1.469119,1.352817,0.101480,0.994835,-0.001176,0.000000,0.000000,0.000000,-1,1.763807,-0.646360,-0.010386,0.047018,0.002830,-0.256805
"2018-06-07 01:01:51.996 +0000",1528333311.996447,1.329557,-1.467270,1.128982,0.100334,0.994646,-0.024685,0.000000,0.000000,0.000000,-1,2.407528,-0.744019,-0.117558,0.185921,0.042662,-0.104084
"2018-06-07 01:01:52.007 +0000",1528333312.006521,1.079168,-1.458133,0.888084,0.099098,0.993660,-0.053065,0.000000,0.000000,0.000000,-1,2.839157,-1.220628,-0.051091,0.255638,-0.034249,0.021968
"2018-06-07 01:01:52.017 +0000",1528333312.016595,0.849314,-1.438621,0.675831,0.098945,0.991278,-0.087041,0.000000,0.000000,0.000000,-1,3.334075,-2.150004,0.173109,0.226190,0.029413,-0.031947
"2018-06-07 01:01:52.027 +0000",1528333312.026670,0.660577,-1.410890,0.516868,0.097691,0.987242,-0.125724,0.000000,0.000000,0.000000,-1,3.600738,-3.467861,0.214917,0.149684,0.115556,-0.129052
"2018-06-07 01:01:52.037 +0000",1528333312.036743,0.532991,-1.386487,0.422749,0.093117,0.983063,-0.157841,0.000000,0.000000,0.000000,-1,2.553196,-3.180960,-0.047534,0.151695,0.178146,0.019139
"2018-06-07 01:01:52.047 +0000",1528333312.046817,0.475692,-1.374485,0.381363,0.089323,0.980793,-0.173392,0.000000,0.000000,0.000000,-1,1.068519,-1.146348,-0.089846,0.170336,-0.080875,0.518363
"2018-06-07 01:01:52.057 +0000",1528333312.056892,0.465776,-1.371384,0.373160,0.088965,0.980183,-0.176986,0.000000,0.000000,0.000000,-1,0.164272,0.031854,0.026444,0.166681,-0.193104,0.249878
"2018-06-07 01:01:52.067 +0000",1528333312.066966,0.477652,-1.371326,0.382119,0.091087,0.980172,-0.175968,0.000000,0.000000,0.000000,-1,-0.116875,0.356320,0.215194,0.164559,-0.193093,0.248860
"2018-06-07 01:01:52.077 +0000",1528333312.077040,0.501026,-1.370595,0.402182,0.095518,0.980027,-0.174420,0.000000,0.000000,0.000000,-1,-0.102776,0.344472,0.432407,0.173052,-0.307175,-0.201099
"2018-06-07 01:01:52.087 +0000",1528333312.087114,0.527464,-1.368117,0.426360,0.101318,0.979531,-0.173931,0.000000,0.000000,0.000000,-1,-0.004997,0.246472,0.568505,0.090531,-0.313759,-0.146183
"2018-06-07 01:01:52.097 +0000",1528333312.097188,0.550883,-1.363760,0.449531,0.107596,0.978644,-0.175146,0.000000,0.000000,0.000000,-1,0.197457,-0.034282,0.637142,0.049371,-0.236747,-0.065592
"2018-06-07 01:01:52.107 +0000",1528333312.107262,0.633038,-1.354026,0.534529,0.127236,0.976597,-0.173398,0.000000,0.000000,0.000000,-1,0.441296,-0.502507,0.673944,0.134117,-0.093556,-0.096545
"2018-06-07 01:01:52.117 +0000",1528333312.117336,0.635388,-1.346397,0.543832,0.132061,0.974928,-0.179090,0.000000,0.000000,0.000000,-1,0.495742,-0.684200,0.581861,0.271259,-0.020353,-0.000842
"2018-06-07 01:01:52.127 +0000",1528333312.127411,0.633649,-1.339348,0.549591,0.135815,0.973335,-0.184853,0.000000,0.000000,0.000000,-1,0.480686,-0.766236,0.500984,0.393970,-0.069862,0.025856
"2018-06-07 01:01:52.137 +0000",1528333312.137486,0.626708,-1.333220,0.552162,0.138024,0.971911,-0.190618,0.000000,0.000000,0.000000,-1,0.448244,-0.984258,0.375649,0.420692,-0.131259,-0.079737
"2018-06-07 01:01:52.148 +0000",1528333312.147559,0.680273,-1.323105,0.613583,0.154208,0.969481,-0.190589,0.000000,0.000000,0.000000,-1,0.468177,-0.960577,0.239065,0.367551,-0.125762,-0.120630
"2018-06-07 01:01:52.158 +0000",1528333312.157633,0.663464,-1.317797,0.605892,0.154149,0.968166,-0.197205,0.000000,0.000000,0.000000,-1,0.555879,-0.936982,0.167941,0.353404,-0.152111,-0.118042
"2018-06-07 01:01:52.168 +0000",1528333312.167707,0.642228,-1.311884,0.595357,0.153354,0.966669,-0.205015,0.000000,0.000000,0.000000,-1,0.649755,-1.157271,0.143421,0.334561,-0.247156,-0.131228
"2018-06-07 01:01:52.178 +0000",1528333312.177781,0.616024,-1.304984,0.583042,0.151780,0.964880,-0.214401,0.000000,0.000000,0.000000,-1,0.774029,-1.533473,0.146344,0.243759,-0.290029,-0.119491
"2018-06-07 01:01:52.188 +0000",1528333312.187855,0.643184,-1.291533,0.627490,0.165316,0.961259,-0.220567,0.000000,0.000000,0.000000,-1,0.854895,-2.169718,0.089450,0.088667,-0.332749,-0.125487
"2018-06-07 01:01:52.198 +0000",1528333312.197929,0.599235,-1.285283,0.609924,0.158851,0.959517,-0.232573,0.000000,0.000000,0.000000,-1,0.747595,-2.837849,-0.080048,-0.000038,-0.239440,-0.076936
"2018-06-07 01:01:52.208 +0000",1528333312.208003,0.553102,-1.281567,0.592891,0.149828,0.958464,-0.242684,0.000000,0.000000,0.000000,-1,0.506292,-2.947631,-0.239010,0.037611,-0.153044,0.036583
"2018-06-07 01:01:52.218 +0000",1528333312.218078,0.509435,-1.280461,0.576946,0.139609,0.958148,-0.249919,0.000000,0.000000,0.000000,-1,0.273802,-2.754596,-0.351935,0.118082,-0.191348,0.123515
"2018-06-07 01:01:52.228 +0000",1528333312.228152,0.526242,-1.275550,0.617675,0.146152,0.956730,-0.251604,0.000000,0.000000,0.000000,-1,0.134699,-2.634941,-0.443774,0.226682,-0.150014,0.048143
"2018-06-07 01:01:52.238 +0000",1528333312.238226,0.490952,-1.277220,0.604362,0.136430,0.957215,-0.255194,0.000000,0.000000,0.000000,-1,0.008978,-2.071143,-0.418182,0.258376,-0.229569,0.041464
"2018-06-07 01:01:52.248 +0000",1528333312.248300,0.461490,-1.279234,0.590381,0.127994,0.957796,-0.257375,0.000000,0.000000,0.000000,-1,0.021198,-1.452954,-0.444378,0.190609,-0.043200,0.082067
"2018-06-07 01:01:52.258 +0000",1528333312.258374,0.437896,-1.280027,0.578592,0.121565,0.958024,-0.259635,0.000000,0.000000,0.000000,-1,0.091179,-1.192142,-0.288887,0.175326,0.023300,-0.002389
"2018-06-07 01:01:52.268 +0000",1528333312.268448,0.470596,-1.273996,0.622726,0.132606,0.956277,-0.260668,0.000000,0.000000,0.000000,-1,0.218990,-1.504993,-0.207265,0.034661,0.020774,-0.153547
"2018-06-07 01:01:52.279 +0000",1528333312.278522,0.439460,-1.272584,0.609170,0.125001,0.955863,-0.265891,0.000000,0.000000,0.000000,-1,0.318918,-1.876399,-0.317214,-0.197450,0.181603,-0.244729
"2018-06-07 01:01:52.289 +0000",1528333312.288597,0.405701,-1.271367,0.594530,0.116414,0.955505,-0.271027,0.000000,0.000000,0.000000,-1,0.261487,-1.978520,-0.348573,-0.249090,0.061509,-0.160552
"2018-06-07 01:01:52.299 +0000",1528333312.298671,0.373085,-1.271117,0.582125,0.107601,0.955431,-0.274902,0.000000,0.000000,0.000000,-1,0.123628,-2.116341,-0.297028,-0.212353,0.094465,-0.087327
"2018-06-07 01:01:52.309 +0000",1528333312.308745,0.391492,-1.267561,0.620247,0.113938,0.954375,-0.276013,0.000000,0.000000,0.000000,-1,-0.029332,-2.203896,-0.200124,-0.146409,0.163621,-0.081744
"2018-06-07 01:01:52.319 +0000",1528333312.318819,0.368334,-1.269952,0.618831,0.106694,0.955087,-0.276447,0.000000,0.000000,0.000000,-1,-0.277005,-2.146833,-0.097205,-0.105809,0.040458,-0.064861
"2018-06-07 01:01:52.329 +0000",1528333312.328893,0.351016,-1.274706,0.622351,0.100329,0.956484,-0.273987,0.000000,0.000000,0.000000,-1,-0.531518,-2.013725,-0.070419,-0.056872,-0.092456,-0.086502
"2018-06-07 01:01:52.339 +0000",1528333312.338967,0.335689,-1.280797,0.626024,0.094197,0.958244,-0.269986,0.000000,0.000000,0.000000,-1,-0.619569,-1.831549,-0.115940,-0.033650,0.067711,-0.184268
"2018-06-07 01:01:52.349 +0000",1528333312.349041,0.361759,-1.282426,0.668062,0.100649,0.958709,-0.265978,0.000000,0.000000,0.000000,-1,-0.492392,-1.705937,-0.142757,0.031171,0.204988,-0.267194
"2018-06-07 01:01:52.359 +0000",1528333312.359115,0.346408,-1.285612,0.668426,0.095517,0.959610,-0.264617,0.000000,0.000000,0.000000,-1,-0.241001,-1.501323,-0.078199,0.096347,0.251236,-0.339631
"2018-06-07 01:01:52.369 +0000",1528333312.369189,0.335575,-1.286486,0.671049,0.092369,0.959855,-0.264845,0.000000,0.000000,0.000000,-1,-0.060741,-1.274256,0.082320,0.169533,0.101973,-0.298220
"2018-06-07 01:01:52.379 +0000",1528333312.379264,0.330688,-1.285894,0.678231,0.091258,0.959689,-0.265830,0.000000,0.000000,0.000000,-1,-0.008592,-1.132100,0.249339,0.158696,0.069348,-0.240151
"2018-06-07 01:01:52.389 +0000",1528333312.389338,0.371749,-1.280224,0.727840,0.104068,0.958080,-0.266925,0.000000,0.000000,0.000000,-1,0.016822,-0.872757,0.464089,0.083417,0.111653,-0.183651
"2018-06-07 01:01:52.399 +0000",1528333312.399412,0.383540,-1.277656,0.746889,0.108128,0.957341,-0.267961,0.000000,0.000000,0.000000,-1,0.041465,-0.569330,0.637018,-0.006642,0.183299,-0.162581
"2018-06-07 01:01:52.409 +0000",1528333312.409486,0.402653,-1.274349,0.770887,0.114470,0.956380,-0.268756,0.000000,0.000000,0.000000,-1,0.035689,-0.325275,0.811996,-0.094038,0.244532,-0.152203
"2018-06-07 01:01:52.420 +0000",1528333312.419560,0.429085,-1.270094,0.800154,0.123225,0.955129,-0.269335,0.000000,0.000000,0.000000,-1,0.046659,-0.088895,0.995518,-0.189188,0.307658,-0.158597
"2018-06-07 01:01:52.430 +0000",1528333312.429634,0.491101,-1.259566,0.860781,0.144415,0.951957,-0.270033,0.000000,0.000000,0.000000,-1,0.115008,0.244086,1.217913,-0.254492,0.380898,-0.180314
"2018-06-07 01:01:52.440 +0000",1528333312.439708,0.534194,-1.250243,0.901120,0.160426,0.949061,-0.271189,0.000000,0.000000,0.000000,-1,0.235207,0.534538,1.669178,-0.185038,0.354696,-0.201177
"2018-06-07 01:01:52.450 +0000",1528333312.449782,0.585520,-1.236858,0.949261,0.181132,0.944759,-0.273165,0.000000,0.000000,0.000000,-1,0.319089,0.579103,2.092919,-0.088160,0.284917,-0.200987
"2018-06-07 01:01:52.460 +0000",1528333312.459857,0.638863,-1.221770,0.998135,0.203916,0.939706,-0.274532,0.000000,0.000000,0.000000,-1,0.268672,0.758515,2.207572,-0.079542,0.342765,-0.096730
"2018-06-07 01:01:52.470 +0000",1528333312.469931,0.710671,-1.199660,1.063052,0.236586,0.931916,-0.274877,0.000000,0.000000,0.000000,-1,0.300908,0.856705,2.374509,0.012392,0.183792,-0.041423
"2018-06-07 01:01:52.480 +0000",1528333312.480005,0.752520,-1.177795,1.103503,0.261745,0.923764,-0.279548,0.000000,0.000000,0.000000,-1,0.766308,0.310508,2.565471,0.143772,-0.314389,-0.124856
"2018-06-07 01:01:52.490 +0000",1528333312.490079,0.779761,-1.154152,1.133517,0.284542,0.914452,-0.287768,0.000000,0.000000,0.000000,-1,0.840623,-0.088076,2.374827,0.198948,-0.770562,-0.001065
"2018-06-07 01:01:52.500 +0000",1528333312.500153,0.789870,-1.140997,1.145987,0.295955,0.909050,-0.293320,0.000000,0.000000,0.000000,-1,0.482166,-0.140042,0.914771,-0.191753,-0.575309,0.293228
"2018-06-07 01:01:52.510 +0000",1528333312.510227,0.801832,-1.131129,1.158713,0.305875,0.904893,-0.295983,0.000000,0.000000,0.000000,-1,0.181154,-0.242645,0.050344,-0.447171,-0.482454,0.269066
"2018-06-07 01:01:52.520 +0000",1528333312.520301,0.795254,-1.132901,1.156548,0.302776,0.905646,-0.296866,0.000000,0.000000,0.000000,-1,-0.146222,-0.565141,-0.226286,-0.444072,-0.483207,0.269949
"2018-06-07 01:01:52.530 +0000",1528333312.530375,0.788876,-1.136128,1.157041,0.298801,0.907010,-0.296730,0.000000,0.000000,0.000000,-1,-0.233526,-0.666500,-0.197338,-0.179920,-0.062970,-0.075066
"2018-06-07 01:01:52.540 +0000",1528333312.540450,0.783687,-1.138023,1.157932,0.296043,0.907806,-0.297058,0.000000,0.000000,0.000000,-1,-0.120238,-0.552611,-0.055281,-0.034935,-0.046921,-0.185654
"2018-06-07 01:01:52.551 +0000",1528333312.550524,0.793530,-1.130879,1.170401,0.303569,0.904787,-0.298671,0.000000,0.000000,0.000000,-1,0.099553,-0.323445,0.154633,0.026159,-0.174654,-0.203617
"2018-06-07 01:01:52.561 +0000",1528333312.560598,0.791931,-1.128487,1.172012,0.304630,0.903766,-0.300675,0.000000,0.000000,0.000000,-1,0.096821,-0.319404,0.236400,-0.053623,-0.109759,-0.143706
"2018-06-07 01:01:52.571 +0000",1528333312.570672,0.792265,-1.126093,1.175721,0.306270,0.902738,-0.302092,0.000000,0.000000,0.000000,-1,0.043862,-0.281351,0.289339,-0.095500,-0.025312,-0.077516
"2018-06-07 01:01:52.581 +0000",1528333312.580746,0.793515,-1.123948,1.179647,0.308027,0.901814,-0.303066,0.000000,0.000000,0.000000,-1,0.027226,-0.209913,0.258391,-0.056882,-0.103962,-0.066746
"2018-06-07 01:01:52.591 +0000",1528333312.590820,0.806076,-1.116470,1.193616,0.316667,0.898557,-0.303835,0.000000,0.000000,0.000000,-1,-0.030520,-0.207865,0.255302,-0.005418,-0.158765,-0.064040
"2018-06-07 01:01:52.601 +0000",1528333312.600894,0.809435,-1.114956,1.200018,0.318670,0.897892,-0.303707,0.000000,0.000000,0.000000,-1,-0.126584,-0.265509,0.325271,0.029612,-0.154331,-0.054341
"2018-06-07 01:01:52.611 +0000",1528333312.610968,0.815040,-1.113695,1.210519,0.321191,0.897335,-0.302693,0.000000,0.000000,0.000000,-1,-0.282720,-0.403610,0.431716,0.022773,-0.129742,-0.020809
"2018-06-07 01:01:52.621 +0000",1528333312.621043,0.822427,-1.112396,1.223580,0.324272,0.896761,-0.301104,0.000000,0.000000,0.000000,-1,-0.340987,-0.434798,0.500600,-0.018135,-0.101412,-0.047147
"2018-06-07 01:01:52.631 +0000",1528333312.631117,0.839209,-1.105340,1.245819,0.333979,0.893617,-0.299839,0.000000,0.000000,0.000000,-1,-0.363278,-0.492101,0.538132,-0.084772,-0.102876,-0.092449
"2018-06-07 01:01:52.641 +0000",1528333312.641191,0.846530,-1.103524,1.259298,0.337380,0.892800,-0.298462,0.000000,0.000000,0.000000,-1,-0.316008,-0.454623,0.532754,-0.135690,-0.128503,-0.132218
"2018-06-07 01:01:52.651 +0000",1528333312.651265,0.853676,-1.101546,1.271861,0.340834,0.891908,-0.297202,0.000000,0.000000,0.000000,-1,-0.287567,-0.392993,0.514583,-0.184401,-0.128465,-0.177529
"2018-06-07 01:01:52.661 +0000",1528333312.661339,0.860596,-1.099723,1.284001,0.344115,0.891082,-0.295897,0.000000,0.000000,0.000000,-1,-0.296782,-0.391790,0.483413,-0.206618,-0.147338,-0.172777
"2018-06-07 01:01:52.671 +0000",1528333312.671413,0.873038,-1.093284,1.301513,0.352160,0.888141,-0.295273,0.000000,0.000000,0.000000,-1,-0.328628,-0.465077,0.399373,-0.219012,-0.219058,-0.179229
"2018-06-07 01:01:52.681 +0000",1528333312.681487,0.876827,-1.094080,1.310691,0.352732,0.888506,-0.293484,0.000000,0.000000,0.000000,-1,-0.383442,-0.410373,0.144730,-0.255900,-0.232729,-0.220905
"2018-06-07 01:01:52.692 +0000",1528333312.691561,0.880566,-1.096136,1.318842,0.352418,0.889448,-0.291000,0.000000,0.000000,0.000000,-1,-0.416574,-0.325631,0.071908,-0.214723,-0.193891,-0.262666
"2018-06-07 01:01:52.702 +0000",1528333312.701635,0.884120,-1.098054,1.326229,0.352130,0.890323,-0.288663,0.000000,0.000000,0.000000,-1,-0.365124,-0.307924,0.071842,-0.143954,-0.135486,-0.313082
"2018-06-07 01:01:52.712 +0000",1528333312.711710,0.892012,-1.094327,1.339016,0.356977,0.888620,-0.287957,0.000000,0.000000,0.000000,-1,-0.380447,-0.513693,0.177767,-0.123929,-0.090799,-0.329246
"2018-06-07 01:01:52.722 +0000",1528333312.721784,0.894943,-1.095023,1.349354,0.357337,0.888939,-0.286522,0.000000,0.000000,0.000000,-1,-0.418729,-0.634873,0.253873,-0.148963,-0.038154,-0.299491
"2018-06-07 01:01:52.732 +0000",1528333312.731858,0.899510,-1.095663,1.361962,0.358196,0.889232,-0.284534,0.000000,0.000000,0.000000,-1,-0.512732,-0.658485,0.325012,-0.167401,-0.047770,-0.262082
"2018-06-07 01:01:52.742 +0000",1528333312.741932,0.906185,-1.096342,1.375746,0.359612,0.889542,-0.281763,0.000000,0.000000,0.000000,-1,-0.533908,-0.510361,0.328719,-0.151070,-0.089661,-0.242620
"2018-06-07 01:01:52.752 +0000",1528333312.752006,0.917421,-1.092679,1.391981,0.365340,0.887863,-0.279684,0.000000,0.000000,0.000000,-1,-0.530539,-0.352071,0.280767,-0.158294,-0.124008,-0.284968
"2018-06-07 01:01:52.762 +0000",1528333312.762080,0.926282,-1.093656,1.405168,0.367110,0.888312,-0.275914,0.000000,0.000000,0.000000,-1,-0.541212,-0.262130,0.291810,-0.127654,-0.130225,-0.302211
"2018-06-07 01:01:52.772 +0000",1528333312.772154,0.873970,-1.093536,1.363405,0.352263,0.888257,-0.294801,0.000000,0.000000,0.000000,-1,-0.541507,-0.171130,0.318966,-0.056639,-0.109128,-0.302200
"2018-06-07 01:01:52.782 +0000",1528333312.782228,0.829960,-1.083001,1.328218,0.345838,0.883368,-0.316312,0.000000,0.000000,0.000000,-1,-0.531521,-0.089009,0.376192,-0.011640,-0.066275,-0.328844
"2018-06-07 01:01:52.792 +0000",1528333312.792303,0.789915,-1.070149,1.296956,0.340934,0.877272,-0.337868,0.000000,0.000000,0.000000,-1,-0.563999,-0.036907,0.495814,0.059671,-0.075621,-0.286751
"2018-06-07 01:01:52.802 +0000",1528333312.802377,0.758061,-1.065223,1.272678,0.332967,0.874897,-0.351689,0.000000,0.000000,0.000000,-1,-0.635435,0.087525,0.618963,0.055460,-0.104297,-0.250209
"2018-06-07 01:01:52.812 +0000",1528333312.812451,0.736645,-1.063277,1.258293,0.326503,0.873953,-0.359999,0.000000,0.000000,0.000000,-1,-0.655555,-0.008176,0.652076,0.014653,-0.134024,-0.279131
"2018-06-07 01:01:52.823 +0000",1528333312.822525,0.720317,-1.059112,1.249261,0.322980,0.871921,-0.368014,0.000000,0.000000,0.000000,-1,-0.643754,-0.101367,0.631341,-0.016675,-0.174213,-0.288281
"2018-06-07 01:01:52.833 +0000",1528333312.832599,0.700912,-1.051378,1.238218,0.320118,0.868108,-0.379355,0.000000,0.000000,0.000000,-1,-0.686953,-0.149888,0.654963,-0.030781,-0.215123,-0.235529
"2018-06-07 01:01:52.843 +0000",1528333312.842673,0.692209,-1.042646,1.236443,0.321631,0.863741,-0.387948,0.000000,0.000000,0.000000,-1,-0.722356,-0.041655,0.738183,-0.028234,-0.291582,-0.168708
"2018-06-07 01:01:52.853 +0000",1528333312.852747,0.694459,-1.033794,1.242738,0.327383,0.859246,-0.393083,0.000000,0.000000,0.000000,-1,-0.716378,0.182245,0.752804,-0.118292,-0.279946,-0.170958
"2018-06-07 01:01:52.863 +0000",1528333312.862821,0.699583,-1.026077,1.248779,0.333653,0.855273,-0.396462,0.000000,0.000000,0.000000,-1,-0.659359,0.399514,0.550009,-0.294773,0.087980,-0.199257
"2018-06-07 01:01:52.873 +0000",1528333312.872896,0.715390,-1.028248,1.261314,0.338659,0.856396,-0.389736,0.000000,0.000000,0.000000,-1,-0.671157,0.527376,0.155646,-0.288717,0.863072,-0.150242
"2018-06-07 01:01:52.883 +0000",1528333312.882970,0.731217,-1.034005,1.269979,0.341487,0.859354,-0.380651,0.000000,0.000000,0.000000,-1,-0.724400,0.975002,-0.078496,0.015676,1.643240,0.009756
"2018-06-07 01:01:52.893 +0000",1528333312.893044,0.750499,-1.037903,1.276330,0.346475,0.861341,-0.371543,0.000000,0.000000,0.000000,-1,-0.379908,1.460843,0.000650,0.250357,1.875552,0.173515
"2018-06-07 01:01:52.903 +0000",1528333312.903118,0.761402,-1.035973,1.274118,0.351652,0.860359,-0.368946,0.000000,0.000000,0.000000,-1,0.438124,1.140109,0.063458,0.108630,1.173440,0.011280
"2018-06-07 01:01:52.913 +0000",1528333312.913192,0.759154,-1.026920,1.264263,0.356168,0.855709,-0.375371,0.000000,0.000000,0.000000,-1,1.080224,0.473720,0.237531,-0.144772,0.189670,-0.112834
"2018-06-07 01:01:52.923 +0000",1528333312.923266,0.757187,-1.016638,1.254429,0.361453,0.850344,-0.382445,0.000000,0.000000,0.000000,-1,1.027689,0.732198,0.344892,-0.324954,-0.286806,0.347457
"2018-06-07 01:01:52.933 +0000",1528333312.933340,0.766359,-1.010669,1.249098,0.368460,0.847187,-0.382764,0.000000,0.000000,0.000000,-1,0.468494,1.592087,0.156133,-0.474890,-0.432133,0.859311
"2018-06-07 01:01:52.943 +0000",1528333312.943414,0.787052,-1.010235,1.250278,0.376561,0.846957,-0.375317,0.000000,0.000000,0.000000,-1,-0.156061,2.034294,0.050210,-0.520467,-0.633761,1.113263
"2018-06-07 01:01:52.953 +0000",1528333312.953489,0.812077,-1.013037,1.256706,0.384110,0.848443,-0.364143,0.000000,0.000000,0.000000,-1,-0.537481,1.855794,-0.045168,-0.529908,-0.788781,0.955467
"2018-06-07 01:01:52.964 +0000",1528333312.963563,0.834356,-1.017028,1.262914,0.389615,0.850549,-0.353219,0.000000,0.000000,0.000000,-1,-0.469869,1.624446,-0.067509,-0.490323,-0.657342,0.714959
"2018-06-07 01:01:52.974 +0000",1528333312.973637,0.852876,-1.019498,1.267751,0.394506,0.851845,-0.344559,0.000000,0.000000,0.000000,-1,-0.321066,1.361071,0.009906,-0.266118,-0.422829,0.658143
"2018-06-07 01:01:52.984 +0000",1528333312.983711,0.870650,-1.020302,1.274050,0.400044,0.852266,-0.337052,0.000000,0.000000,0.000000,-1,-0.307774,1.199979,0.213780,0.014324,-0.172426,0.719926
"2018-06-07 01:01:52.994 +0000",1528333312.993785,0.893447,-1.019354,1.285214,0.408252,0.851770,-0.328352,0.000000,0.000000,0.000000,-1,-0.429361,1.349105,0.436075,0.379986,0.166007,0.710645
"2018-06-07 01:01:53.004 +0000",1528333313.003859,0.921139,-1.018616,1.300101,0.417688,0.851383,-0.317302,0.000000,0.000000,0.000000,-1,-0.615294,1.524834,0.554257,0.744803,0.493435,0.584331
"2018-06-07 01:01:53.014 +0000",1528333313.013933,0.951639,-1.018288,1.317935,0.427397,0.851211,-0.304579,0.000000,0.000000,0.000000,-1,-0.761407,1.496906,0.572796,0.895052,0.521042,0.481001
"2018-06-07 01:01:53.024 +0000",1528333313.024007,0.981302,-1.018735,1.336597,0.435926,0.851445,-0.291558,0.000000,0.000000,0.000000,-1,-0.844652,1.320269,0.492875,0.881839,0.285014,0.322304
"2018-06-07 01:01:53.034 +0000",1528333313.034082,1.011593,-1.019205,1.358174,0.444217,0.851691,-0.278009,0.000000,0.000000,0.000000,-1,-0.990575,1.088153,0.511896,0.654385,-0.008353,0.206872
"2018-06-07 01:01:53.044 +0000",1528333313.044156,1.041809,-1.019612,1.382070,0.452114,0.851905,-0.264287,0.000000,0.000000,0.000000,-1,-1.100731,0.979707,0.645213,0.283360,-0.142676,0.190266
"2018-06-07 01:01:53.054 +0000",1528333313.054230,1.074994,-1.018004,1.406127,0.461838,0.851062,-0.249792,0.000000,0.000000,0.000000,-1,-0.977158,1.361500,0.782647,-0.068207,-0.085116,0.159582
"2018-06-07 01:01:53.064 +0000",1528333313.064304,1.110073,-1.014656,1.428711,0.472864,0.849299,-0.234706,0.000000,0.000000,0.000000,-1,-0.866668,1.639225,0.858497,-0.297922,-0.087763,0.187785
"2018-06-07 01:01:53.074 +0000",1528333313.074378,1.145421,-1.009482,1.449216,0.484859,0.846556,-0.219658,0.000000,0.000000,0.000000,-1,-0.666129,1.796805,0.848816,-0.424525,-0.074202,0.200463
"2018-06-07 01:01:53.084 +0000",1528333313.084452,1.176113,-1.003440,1.462286,0.496084,0.843325,-0.206639,0.000000,0.000000,0.000000,-1,-0.308979,1.979043,0.821637,-0.461767,0.089308,0.141331
"2018-06-07 01:01:53.095 +0000",1528333313.094526,1.201479,-0.996307,1.469202,0.506763,0.839470,-0.196156,0.000000,0.000000,0.000000,-1,-0.007230,1.918541,0.789576,-0.420306,0.178062,0.079778
"2018-06-07 01:01:53.105 +0000",1528333313.104600,1.221475,-0.988971,1.471284,0.516356,0.835461,-0.188088,0.000000,0.000000,0.000000,-1,0.189055,1.771315,0.687588,-0.362395,0.173054,0.068581
"2018-06-07 01:01:53.115 +0000",1528333313.114674,1.238230,-0.982579,1.471324,0.524472,0.831931,-0.181150,0.000000,0.000000,0.000000,-1,0.237968,1.581239,0.496534,-0.320126,0.128610,0.101285
"2018-06-07 01:01:53.125 +0000",1528333313.124749,1.251914,-0.978958,1.470163,0.529758,0.829917,-0.174899,0.000000,0.000000,0.000000,-1,0.156926,1.425006,0.263925,-0.245197,0.071603,0.148959
"2018-06-07 01:01:53.135 +0000",1528333313.134823,1.264959,-0.977245,1.468710,0.533349,0.828960,-0.168402,0.000000,0.000000,0.000000,-1,0.122480,1.413519,0.100473,-0.113061,0.026143,0.155294
"2018-06-07 01:01:53.145 +0000",1528333313.144897,1.278039,-0.976929,1.466585,0.535757,0.828783,-0.161487,0.000000,0.000000,0.000000,-1,0.124525,1.504131,-0.040178,0.005777,-0.006685,0.149936
"2018-06-07 01:01:53.155 +0000",1528333313.154971,1.292909,-0.976942,1.464581,0.538089,0.828790,-0.153500,0.000000,0.000000,0.000000,-1,0.140452,1.641562,-0.079613,0.113324,-0.035104,0.169125
"2018-06-07 01:01:53.165 +0000",1528333313.165045,1.307689,-0.976842,1.462278,0.540379,0.828734,-0.145552,0.000000,0.000000,0.000000,-1,0.118832,1.652151,-0.001011,0.223003,-0.072509,0.189848
"2018-06-07 01:01:53.175 +0000",1528333313.175119,1.323504,-0.975944,1.461550,0.543334,0.828231,-0.137170,0.000000,0.000000,0.000000,-1,0.040347,1.625157,0.101276,0.263718,-0.103927,0.194268
"2018-06-07 01:01:53.185 +0000",1528333313.185193,1.340799,-0.974290,1.462578,0.546958,0.827303,-0.128065,0.000000,0.000000,0.000000,-1,-0.031847,1.644306,0.199381,0.243982,-0.127642,0.177259
"2018-06-07 01:01:53.195 +0000",1528333313.195267,1.361151,-0.971007,1.465752,0.552104,0.825455,-0.117472,0.000000,0.000000,0.000000,-1,-0.077195,1.766520,0.345053,0.210790,-0.156036,0.150019
"2018-06-07 01:01:53.205 +0000",1528333313.205342,1.383062,-0.966699,1.469387,0.558034,0.823015,-0.106010,0.000000,0.000000,0.000000,-1,-0.129934,1.910660,0.492956,0.167781,-0.147295,0.096336
"2018-06-07 01:01:53.215 +0000",1528333313.215416,1.406067,-0.961762,1.473436,0.564326,0.820201,-0.093811,0.000000,0.000000,0.000000,-1,-0.134348,1.951170,0.515673,0.064748,-0.099101,0.046265
"2018-06-07 01:01:53.225 +0000",1528333313.225490,1.426905,-0.957640,1.476332,0.569499,0.817836,-0.082517,0.000000,0.000000,0.000000,-1,-0.089122,1.776169,0.392436,-0.028972,-0.043925,-0.010394
"2018-06-07 01:01:53.236 +0000",1528333313.235564,1.445910,-0.954922,1.479258,0.573168,0.816269,-0.071955,0.000000,0.000000,0.000000,-1,-0.102028,1.573921,0.183203,-0.104326,0.019242,-0.031133
"2018-06-07 01:01:53.246 +0000",1528333313.245638,1.463104,-0.955070,1.482050,0.574201,0.816354,-0.062077,0.000000,0.000000,0.000000,-1,-0.179941,1.457226,-0.051449,-0.165158,0.050956,-0.004604
"2018-06-07 01:01:53.256 +0000",1528333313.255712,1.480363,-0.957230,1.485972,0.573428,0.817600,-0.051999,0.000000,0.000000,0.000000,-1,-0.265649,1.371021,-0.232212,-0.175128,0.026745,0.011624
"2018-06-07 01:01:53.266 +0000",1528333313.265786,1.497176,-0.960856,1.490790,0.571262,0.819682,-0.042132,0.000000,0.000000,0.000000,-1,-0.306506,1.250721,-0.368000,-0.164356,-0.007457,0.017810
"2018-06-07 01:01:53.276 +0000",1528333313.275860,1.513798,-0.965148,1.496331,0.568365,0.822133,-0.032431,0.000000,0.000000,0.000000,-1,-0.312972,1.145746,-0.470477,-0.122427,-0.019155,0.026496
"2018-06-07 01:01:53.286 +0000",1528333313.285934,1.529917,-0.970719,1.502679,0.564229,0.825292,-0.023078,0.000000,0.000000,0.000000,-1,-0.413087,1.068975,-0.554371,-0.042836,-0.007482,0.021812
"2018-06-07 01:01:53.296 +0000",1528333313.296009,1.548299,-0.976794,1.511349,0.559535,0.828707,-0.012590,0.000000,0.000000,0.000000,-1,-0.531512,1.136886,-0.596928,0.049917,0.026929,0.014024
"2018-06-07 01:01:53.306 +0000",1528333313.306083,1.569011,-0.983005,1.521680,0.554518,0.832167,-0.000990,0.000000,0.000000,0.000000,-1,-0.586086,1.226822,-0.613752,0.122622,0.044542,-0.055788
"2018-06-07 01:01:53.316 +0000",1528333313.316157,1.590575,-0.988745,1.532100,0.549625,0.835337,0.010872,0.000000,0.000000,0.000000,-1,-0.503171,1.257772,-0.609549,0.163738,0.036139,-0.192376
"2018-06-07 01:01:53.326 +0000",1528333313.326231,1.608272,-0.994691,1.538855,0.544373,0.838591,0.020410,0.000000,0.000000,0.000000,-1,-0.287839,1.162823,-0.599562,0.172653,-0.015379,-0.333902
"2018-06-07 01:01:53.336 +0000",1528333313.336305,1.620254,-1.000705,1.540860,0.539042,0.841852,0.026682,0.000000,0.000000,0.000000,-1,-0.014554,0.972580,-0.601817,0.172384,-0.086191,-0.383081
"2018-06-07 01:01:53.346 +0000",1528333313.346379,1.627426,-1.006824,1.538679,0.533684,0.845138,0.030255,0.000000,0.000000,0.000000,-1,0.194517,0.886422,-0.598244,0.234917,-0.131622,-0.288662
"2018-06-07 01:01:53.356 +0000",1528333313.356453,1.633703,-1.012348,1.534268,0.528817,0.848078,0.033310,0.000000,0.000000,0.000000,-1,0.315917,1.017223,-0.557267,0.337883,-0.151591,-0.174362
"2018-06-07 01:01:53.367 +0000",1528333313.366527,1.638977,-1.017569,1.527776,0.524209,0.850833,0.035796,0.000000,0.000000,0.000000,-1,0.392908,1.068658,-0.468015,0.441795,-0.164783,-0.187911
"2018-06-07 01:01:53.377 +0000",1528333313.376601,1.641713,-1.021635,1.519517,0.520653,0.852963,0.036985,0.000000,0.000000,0.000000,-1,0.478174,0.927838,-0.338467,0.536689,-0.150601,-0.267042
"2018-06-07 01:01:53.387 +0000",1528333313.386676,1.641822,-1.024312,1.509858,0.518369,0.854357,0.036879,0.000000,0.000000,0.000000,-1,0.521293,0.804401,-0.193712,0.585284,-0.113619,-0.295760
"2018-06-07 01:01:53.397 +0000",1528333313.396750,1.641429,-1.025397,1.500497,0.517459,0.854920,0.036611,0.000000,0.000000,0.000000,-1,0.499649,0.720519,-0.100326,0.542203,-0.057145,-0.302495
"2018-06-07 01:01:53.407 +0000",1528333313.406824,1.638839,-1.026625,1.490137,0.516504,0.855556,0.035199,0.000000,0.000000,0.000000,-1,0.563721,0.583406,-0.083661,0.430227,-0.007412,-0.373181
"2018-06-07 01:01:53.417 +0000",1528333313.416898,1.631370,-1.028159,1.476426,0.515442,0.856350,0.031260,0.000000,0.000000,0.000000,-1,0.771090,0.359070,-0.114906,0.335784,0.031208,-0.490901
"2018-06-07 01:01:53.427 +0000",1528333313.426972,1.616159,-1.030351,1.457232,0.513982,0.857480,0.023332,0.000000,0.000000,0.000000,-1,1.074436,0.034171,-0.185388,0.271739,0.020313,-0.615953
"2018-06-07 01:01:53.437 +0000",1528333313.437046,1.590623,-1.032651,1.430601,0.512436,0.858661,0.010161,0.000000,0.000000,0.000000,-1,1.472296,-0.375047,-0.243423,0.250717,-0.030505,-0.614394
"2018-06-07 01:01:53.447 +0000",1528333313.447120,1.552042,-1.035098,1.394422,0.510344,0.859913,-0.009572,0.000000,0.000000,0.000000,-1,1.951569,-0.866694,-0.224437,0.410127,-0.042621,-0.451335
"2018-06-07 01:01:53.457 +0000",1528333313.457194,1.504565,-1.034342,1.352982,0.509963,0.859526,-0.033825,0.000000,0.000000,0.000000,-1,2.111349,-1.266023,0.081669,0.738968,0.004762,-0.184574
"2018-06-07 01:01:53.467 +0000",1528333313.467268,1.456953,-1.027551,1.315760,0.513563,0.856036,-0.058719,0.000000,0.000000,0.000000,-1,1.899383,-1.659800,0.651104,0.857927,0.042570,-0.001873
"2018-06-07 01:01:53.477 +0000",1528333313.477343,1.407360,-1.013784,1.281657,0.521601,0.848838,-0.086016,0.000000,0.000000,0.000000,-1,1.993706,-2.172098,1.151724,0.639807,-0.010383,-0.079130
"2018-06-07 01:01:53.487 +0000",1528333313.487417,1.351297,-0.995451,1.245546,0.531063,0.839004,-0.118477,0.000000,0.000000,0.000000,-1,2.305553,-2.645817,1.497065,0.326542,-0.047165,-0.085839
"2018-06-07 01:01:53.497 +0000",1528333313.497491,1.294969,-0.973209,1.211009,0.541376,0.826696,-0.153232,0.000000,0.000000,0.000000,-1,2.382678,-2.731075,1.722526,0.022116,0.026866,0.125903
"2018-06-07 01:01:53.508 +0000",1528333313.507565,1.244259,-0.949197,1.181765,0.551559,0.812948,-0.186791,0.000000,0.000000,0.000000,-1,2.261243,-2.629620,1.794092,-0.253265,0.210657,0.205117
"2018-06-07 01:01:53.518 +0000",1528333313.517639,1.199097,-0.923694,1.156921,0.561702,0.797834,-0.218962,0.000000,0.000000,0.000000,-1,2.239100,-2.456191,1.783891,-0.329753,0.436739,0.081297
"2018-06-07 01:01:53.528 +0000",1528333313.527713,1.158421,-0.899066,1.132064,0.570166,0.782746,-0.249424,0.000000,0.000000,0.000000,-1,2.371099,-1.931530,1.626995,-0.275198,0.724380,0.005329
"2018-06-07 01:01:53.538 +0000",1528333313.537787,1.123478,-0.876375,1.105181,0.576972,0.768424,-0.276804,0.000000,0.000000,0.000000,-1,2.495289,-1.228063,1.233995,-0.226249,1.125863,0.010126
"2018-06-07 01:01:53.548 +0000",1528333313.547861,1.093103,-0.857038,1.076012,0.581389,0.755907,-0.300975,0.000000,0.000000,0.000000,-1,2.541423,-0.696860,0.768605,-0.124876,1.428877,-0.011663
"2018-06-07 01:01:53.558 +0000",1528333313.557936,1.065770,-0.839239,1.045831,0.584629,0.744135,-0.323211,0.000000,0.000000,0.000000,-1,2.589603,-0.448527,0.482019,0.032253,1.373953,0.003356
"2018-06-07 01:01:53.568 +0000",1528333313.568010,1.038591,-0.822777,1.014727,0.586107,0.733038,-0.345149,0.000000,0.000000,0.000000,-1,2.619870,-0.420517,0.366938,0.118834,1.068903,0.045726
"2018-06-07 01:01:53.578 +0000",1528333313.578084,1.012237,-0.806515,0.984467,0.586842,0.721880,-0.366743,0.000000,0.000000,0.000000,-1,2.583706,-0.441160,0.291665,0.100963,0.732359,0.105910
"2018-06-07 01:01:53.588 +0000",1528333313.588158,0.986579,-0.790678,0.956380,0.586703,0.710831,-0.387936,0.000000,0.000000,0.000000,-1,2.447426,-0.605048,0.277517,0.072721,0.439865,0.132488
"2018-06-07 01:01:53.598 +0000",1528333313.598232,0.958981,-0.775242,0.937852,0.584688,0.699889,-0.410231,0.000000,0.000000,0.000000,-1,1.651746,-1.966220,0.520627,0.161207,0.225740,0.265013
"2018-06-07 01:01:53.608 +0000",1528333313.608306,0.924766,-0.762998,0.934000,0.577113,0.691091,-0.435119,0.000000,0.000000,0.000000,-1,0.772026,-3.416074,0.913185,0.338521,0.088572,0.729721
"2018-06-07 01:01:53.618 +0000",1528333313.618380,0.888286,-0.750581,0.936031,0.567474,0.682064,-0.461255,0.000000,0.000000,0.000000,-1,0.648135,-3.807974,1.091962,0.393234,-0.075573,0.557966
"2018-06-07 01:01:53.628 +0000",1528333313.628454,0.851637,-0.737048,0.937392,0.557087,0.672105,-0.487775,0.000000,0.000000,0.000000,-1,0.852891,-3.683325,1.084326,0.302532,-0.091554,0.340024
"2018-06-07 01:01:53.639 +0000",1528333313.638528,0.815659,-0.721967,0.937169,0.546501,0.660862,-0.514387,0.000000,0.000000,0.000000,-1,1.058628,-3.546629,1.084253,0.156518,-0.034778,0.306212
"2018-06-07 01:01:53.649 +0000",1528333313.648603,0.780630,-0.706353,0.937820,0.535347,0.649064,-0.540477,0.000000,0.000000,0.000000,-1,1.019081,-3.522949,1.170464,-0.007866,0.017715,0.401439
"2018-06-07 01:01:53.659 +0000",1528333313.658677,0.747753,-0.691463,0.942046,0.523806,0.637665,-0.564807,0.000000,0.000000,0.000000,-1,0.778759,-3.532865,1.281777,-0.159991,0.070419,0.570086
"2018-06-07 01:01:53.669 +0000",1528333313.668751,0.717395,-0.678116,0.949775,0.511972,0.627327,-0.586807,0.000000,0.000000,0.000000,-1,0.523059,-3.496489,1.338402,-0.282525,0.091057,0.660690
"2018-06-07 01:01:53.679 +0000",1528333313.678825,0.688811,-0.666700,0.960229,0.499510,0.618396,-0.606689,0.000000,0.000000,0.000000,-1,0.286782,-3.491627,1.331427,-0.365523,0.103741,0.693435
"2018-06-07 01:01:53.689 +0000",1528333313.688899,0.661533,-0.656892,0.971243,0.486480,0.610659,-0.624843,0.000000,0.000000,0.000000,-1,0.216808,-3.324657,1.258929,-0.415283,0.085279,0.692455
"2018-06-07 01:01:53.699 +0000",1528333313.698973,0.635478,-0.647850,0.981164,0.473295,0.603473,-0.641723,0.000000,0.000000,0.000000,-1,0.258592,-3.139572,1.129219,-0.402098,0.092465,0.709335
"2018-06-07 01:01:53.709 +0000",1528333313.709047,0.610066,-0.639686,0.989132,0.459644,0.596943,-0.657558,0.000000,0.000000,0.000000,-1,0.297743,-2.935540,0.929653,-0.408863,-0.013554,0.618511
"2018-06-07 01:01:53.719 +0000",1528333313.719121,0.586647,-0.632743,0.994313,0.446404,0.591359,-0.671577,0.000000,0.000000,0.000000,-1,0.318395,-2.589651,0.659549,-0.428429,-0.039357,0.623664
"2018-06-07 01:01:53.729 +0000",1528333313.729195,0.564337,-0.628629,0.999658,0.432609,0.588036,-0.683418,0.000000,0.000000,0.000000,-1,0.034313,-2.497876,0.575491,-0.352073,-0.070839,0.757133
"2018-06-07 01:01:53.739 +0000",1528333313.739270,0.545887,-0.626430,1.006336,0.420597,0.586256,-0.692386,0.000000,0.000000,0.000000,-1,-0.124591,-2.103081,0.566247,-0.231114,-0.103407,0.803211
"2018-06-07 01:01:53.749 +0000",1528333313.749344,0.532008,-0.625824,1.013583,0.411127,0.585766,-0.698463,0.000000,0.000000,0.000000,-1,-0.293694,-1.707051,0.517231,-0.254786,-0.105022,0.723090
"2018-06-07 01:01:53.759 +0000",1528333313.759418,0.521930,-0.627427,1.021206,0.403599,0.587064,-0.701756,0.000000,0.000000,0.000000,-1,-0.481217,-1.395378,0.415305,-0.301152,-0.131131,0.721898
"2018-06-07 01:01:53.769 +0000",1528333313.769492,0.514048,-0.631397,1.029429,0.396906,0.590273,-0.702881,0.000000,0.000000,0.000000,-1,-0.731033,-1.211462,0.371235,-0.331583,-0.182649,0.721649
"2018-06-07 01:01:53.780 +0000",1528333313.779566,0.508777,-0.637743,1.039177,0.391363,0.595384,-0.701677,0.000000,0.000000,0.000000,-1,-0.992727,-1.050822,0.372301,-0.316259,-0.244294,0.719484
"2018-06-07 01:01:53.790 +0000",1528333313.789640,0.506575,-0.646053,1.050307,0.387403,0.602039,-0.698187,0.000000,0.000000,0.000000,-1,-1.201965,-0.817578,0.372384,-0.339231,-0.297199,0.670339
"2018-06-07 01:01:53.800 +0000",1528333313.799714,0.508985,-0.656653,1.062798,0.385953,0.610469,-0.691639,0.000000,0.000000,0.000000,-1,-1.370951,-0.490679,0.316712,-0.425733,-0.344478,0.589024
"2018-06-07 01:01:53.810 +0000",1528333313.809788,0.514163,-0.668665,1.074767,0.385895,0.619939,-0.683197,0.000000,0.000000,0.000000,-1,-1.544802,-0.120746,0.205244,-0.545822,-0.402288,0.496353
"2018-06-07 01:01:53.820 +0000",1528333313.819862,0.523709,-0.683115,1.087130,0.387878,0.631212,-0.671654,0.000000,0.000000,0.000000,-1,-1.782761,0.287429,0.094033,-0.649002,-0.459139,0.414391
"2018-06-07 01:01:53.830 +0000",1528333313.829937,0.538671,-0.700290,1.100564,0.392264,0.644440,-0.656372,0.000000,0.000000,0.000000,-1,-2.061858,0.755803,-0.001849,-0.695288,-0.491776,0.314041
"2018-06-07 01:01:53.840 +0000",1528333313.840011,0.561100,-0.721127,1.116172,0.399652,0.660232,-0.635900,0.000000,0.000000,0.000000,-1,-2.369289,1.308684,-0.111403,-0.680627,-0.504791,0.207983
"2018-06-07 01:01:53.850 +0000",1528333313.850085,0.590652,-0.744454,1.133099,0.409577,0.677570,-0.610853,0.000000,0.000000,0.000000,-1,-2.710245,1.985631,-0.247412,-0.618241,-0.496265,0.119200
"2018-06-07 01:01:53.860 +0000",1528333313.860159,0.629735,-0.770958,1.152616,0.422405,0.696823,-0.579662,0.000000,0.000000,0.000000,-1,-3.039672,2.739480,-0.389676,-0.496654,-0.476165,0.049374
"2018-06-07 01:01:53.870 +0000",1528333313.870233,0.678127,-0.799385,1.174229,0.437344,0.716928,-0.542901,0.000000,0.000000,0.000000,-1,-3.179842,3.454423,-0.552925,-0.336834,-0.389276,-0.026390
"2018-06-07 01:01:53.880 +0000",1528333313.880307,0.731913,-0.827420,1.196617,0.452284,0.736188,-0.503450,0.000000,0.000000,0.000000,-1,-2.947189,3.662945,-0.647508,-0.142851,-0.182233,-0.262877
"2018-06-07 01:01:53.890 +0000",1528333313.890381,0.777020,-0.848985,1.216580,0.463284,0.750610,-0.471113,0.000000,0.000000,0.000000,-1,-2.278934,2.686840,-0.421690,0.189105,0.218155,-0.788760
"2018-06-07 01:01:53.900 +0000",1528333313.900455,0.804156,-0.860924,1.233448,0.469408,0.758445,-0.452120,0.000000,0.000000,0.000000,-1,-1.384008,1.004450,0.054332,0.676237,1.002099,-1.210432
"2018-06-07 01:01:53.911 +0000",1528333313.910529,0.812357,-0.863320,1.245936,0.471779,0.760004,-0.447004,0.000000,0.000000,0.000000,-1,-0.544579,-0.463824,0.481623,1.223060,1.960302,-1.302645
"2018-06-07 01:01:53.921 +0000",1528333313.920604,0.808993,-0.858123,1.254809,0.473125,0.756617,-0.451309,0.000000,0.000000,0.000000,-1,0.160148,-1.173662,0.849042,1.350880,1.946630,-1.136964
"2018-06-07 01:01:53.931 +0000",1528333313.930678,0.799495,-0.847504,1.259702,0.474552,0.749630,-0.461357,0.000000,0.000000,0.000000,-1,0.584514,-1.315822,0.999322,0.727215,0.976230,-0.737633
"2018-06-07 01:01:53.941 +0000",1528333313.940753,0.789333,-0.836297,1.262254,0.475773,0.742166,-0.472043,0.000000,0.000000,0.000000,-1,0.664131,-1.135013,0.867362,0.009304,0.327658,-0.319384
"2018-06-07 01:01:53.951 +0000",1528333313.950826,0.782350,-0.826831,1.261630,0.477396,0.735789,-0.480316,0.000000,0.000000,0.000000,-1,0.734337,-0.445104,0.530380,-0.611429,0.185521,-0.366975
"2018-06-07 01:01:53.961 +0000",1528333313.960900,0.772812,-0.822230,1.252013,0.475152,0.732665,-0.487266,0.000000,0.000000,0.000000,-1,0.872707,-0.399121,-0.397010,-1.004892,0.960236,-0.406686
"2018-06-07 01:01:53.971 +0000",1528333313.970974,0.743849,-0.823232,1.228170,0.460345,0.733347,-0.500281,0.000000,0.000000,0.000000,-1,1.101631,-1.326942,-1.507071,-0.892413,1.826727,-0.577463
"2018-06-07 01:01:53.981 +0000",1528333313.981048,0.707960,-0.826572,1.192820,0.440502,0.735613,-0.514613,0.000000,0.000000,0.000000,-1,1.398525,-0.752879,-2.079400,-0.591763,1.889616,-0.103459
"2018-06-07 01:01:53.991 +0000",1528333313.991122,0.680430,-0.826406,1.158082,0.426246,0.735501,-0.526638,0.000000,0.000000,0.000000,-1,1.515172,-0.049680,-1.626927,0.022087,0.822574,0.850872
"2018-06-07 01:01:54.001 +0000",1528333314.001196,0.669371,-0.824795,1.134745,0.421131,0.734409,-0.532249,0.000000,0.000000,0.000000,-1,1.115981,0.877128,-0.912315,0.288830,-0.183155,1.089118
"2018-06-07 01:01:54.011 +0000",1528333314.011271,0.679004,-0.823237,1.120713,0.426957,0.733350,-0.529057,0.000000,0.000000,0.000000,-1,0.600547,2.260758,-0.572584,0.338668,-0.724012,1.651036
"2018-06-07 01:01:54.021 +0000",1528333314.021345,0.698839,-0.821034,1.112868,0.438405,0.731851,-0.521720,0.000000,0.000000,0.000000,-1,0.480421,2.551749,-0.147658,0.338100,-0.949975,1.670402
"2018-06-07 01:01:54.031 +0000",1528333314.031419,0.722499,-0.817292,1.112275,0.452433,0.729296,-0.513253,0.000000,0.000000,0.000000,-1,0.240758,2.351561,0.311609,0.126577,-0.926943,1.333184
"2018-06-07 01:01:54.041 +0000",1528333314.041493,0.751817,-0.815496,1.117938,0.468177,0.728066,-0.500726,0.000000,0.000000,0.000000,-1,-0.135245,2.508112,0.426943,-0.123573,-0.834389,1.092813
"2018-06-07 01:01:54.052 +0000",1528333314.051567,0.785545,-0.816081,1.127614,0.484495,0.728467,-0.484352,0.000000,0.000000,0.000000,-1,-0.627053,2.690030,0.437204,-0.107587,-0.756085,1.188912
"2018-06-07 01:01:54.062 +0000",1528333314.061641,0.824419,-0.820242,1.142731,0.500723,0.731311,-0.463095,0.000000,0.000000,0.000000,-1,-1.144601,2.787587,0.390269,-0.020788,-0.495334,1.242331
"2018-06-07 01:01:54.072 +0000",1528333314.071715,0.866540,-0.827827,1.159812,0.515537,0.736463,-0.437995,0.000000,0.000000,0.000000,-1,-1.419951,2.964712,0.116050,-0.017841,0.154421,0.927146
"2018-06-07 01:01:54.082 +0000",1528333314.081789,0.908332,-0.839635,1.177260,0.526492,0.744400,-0.410696,0.000000,0.000000,0.000000,-1,-1.563995,2.718823,-0.244677,0.178693,0.880433,0.494803
"2018-06-07 01:01:54.092 +0000",1528333314.091863,0.943436,-0.851050,1.191872,0.533667,0.751973,-0.386951,0.000000,0.000000,0.000000,-1,-1.386517,2.290424,-0.324851,0.494760,1.117335,0.246936
"2018-06-07 01:01:54.102 +0000",1528333314.101938,0.973469,-0.859781,1.205401,0.539597,0.757700,-0.367045,0.000000,0.000000,0.000000,-1,-1.183717,1.867600,-0.146913,0.714813,0.992987,0.191050
"2018-06-07 01:01:54.112 +0000",1528333314.112012,1.003531,-0.865696,1.220520,0.546596,0.761547,-0.348245,0.000000,0.000000,0.000000,-1,-1.131094,1.880937,0.111160,0.696141,0.809239,0.333017
"2018-06-07 01:01:54.122 +0000",1528333314.122086,1.038336,-0.869495,1.237907,0.555886,0.764003,-0.327543,0.000000,0.000000,0.000000,-1,-1.154920,2.239063,0.297267,0.460410,0.581593,0.394774
"2018-06-07 01:01:54.132 +0000",1528333314.132160,1.077766,-0.872440,1.256006,0.566381,0.765900,-0.304309,0.000000,0.000000,0.000000,-1,-1.148002,2.635345,0.304858,0.049341,0.365051,0.342044
"2018-06-07 01:01:54.142 +0000",1528333314.142234,1.118956,-0.875544,1.273341,0.576290,0.767892,-0.279689,0.000000,0.000000,0.000000,-1,-1.111622,2.781890,0.199788,-0.332684,0.163031,0.300502
"2018-06-07 01:01:54.152 +0000",1528333314.152308,1.157758,-0.879113,1.289008,0.584192,0.770173,-0.256021,0.000000,0.000000,0.000000,-1,-1.028426,2.589507,0.058128,-0.605829,-0.002122,0.270533
"2018-06-07 01:01:54.162 +0000",1528333314.162382,1.191750,-0.882493,1.302103,0.590134,0.772325,-0.235055,0.000000,0.000000,0.000000,-1,-0.829252,2.303755,0.007361,-0.733627,-0.127946,0.276559
"2018-06-07 01:01:54.172 +0000",1528333314.172456,1.220408,-0.883834,1.310910,0.595654,0.773176,-0.217693,0.000000,0.000000,0.000000,-1,-0.463254,2.156186,0.099675,-0.636349,-0.201628,0.201335
"2018-06-07 01:01:54.183 +0000",1528333314.182530,1.244872,-0.883219,1.314005,0.601251,0.772786,-0.203209,0.000000,0.000000,0.000000,-1,-0.073825,2.212052,0.124761,-0.514031,-0.241185,0.127617
"2018-06-07 01:01:54.193 +0000",1528333314.192604,1.267233,-0.882037,1.312513,0.606515,0.772035,-0.189987,0.000000,0.000000,0.000000,-1,0.175478,2.367815,0.056877,-0.397943,-0.235186,0.105423
"2018-06-07 01:01:54.203 +0000",1528333314.202679,1.290817,-0.882802,1.310168,0.610259,0.772521,-0.175469,0.000000,0.000000,0.000000,-1,0.229667,2.466631,-0.173147,-0.274779,-0.167220,0.086067
"2018-06-07 01:01:54.213 +0000",1528333314.212753,1.313063,-0.885832,1.305506,0.611745,0.774442,-0.161253,0.000000,0.000000,0.000000,-1,0.191548,2.600403,-0.423296,-0.143941,-0.026090,0.119337
"2018-06-07 01:01:54.223 +0000",1528333314.222827,1.335597,-0.890547,1.300859,0.611665,0.777416,-0.146576,0.000000,0.000000,0.000000,-1,0.164150,2.572294,-0.544863,0.055983,0.064076,0.132446
"2018-06-07 01:01:54.233 +0000",1528333314.232901,1.356430,-0.895700,1.296601,0.610664,0.780647,-0.132949,0.000000,0.000000,0.000000,-1,0.132973,2.321967,-0.557352,0.228738,0.050042,0.095671
"2018-06-07 01:01:54.243 +0000",1528333314.242975,1.377804,-0.900968,1.295981,0.609321,0.783928,-0.119076,0.000000,0.000000,0.000000,-1,-0.000543,2.012895,-0.503087,0.306832,-0.009865,0.068066
"2018-06-07 01:01:54.253 +0000",1528333314.253049,1.397428,-0.905410,1.297135,0.608104,0.786679,-0.106495,0.000000,0.000000,0.000000,-1,-0.198681,1.818669,-0.391331,0.293614,-0.098095,0.044529
"2018-06-07 01:01:54.263 +0000",1528333314.263123,1.417777,-0.909268,1.300979,0.607141,0.789054,-0.093636,0.000000,0.000000,0.000000,-1,-0.315595,1.685266,-0.332291,0.215063,-0.191337,-0.068412
"2018-06-07 01:01:54.273 +0000",1528333314.273197,1.436694,-0.913235,1.305055,0.605697,0.791485,-0.081716,0.000000,0.000000,0.000000,-1,-0.282582,1.508772,-0.369452,0.086945,-0.243557,-0.221553
"2018-06-07 01:01:54.283 +0000",1528333314.283271,1.453674,-0.917863,1.308872,0.603352,0.794305,-0.070991,0.000000,0.000000,0.000000,-1,-0.151430,1.237246,-0.454443,0.025737,-0.284509,-0.315133
"2018-06-07 01:01:54.293 +0000",1528333314.293346,1.464835,-0.923096,1.309243,0.599965,0.797473,-0.063812,0.000000,0.000000,0.000000,-1,-0.065565,1.040213,-0.532659,0.039897,-0.300708,-0.277619
"2018-06-07 01:01:54.303 +0000",1528333314.303420,1.475357,-0.928947,1.309252,0.595948,0.800990,-0.057050,0.000000,0.000000,0.000000,-1,-0.061991,1.063519,-0.590684,0.101760,-0.253398,-0.107577
"2018-06-07 01:01:54.313 +0000",1528333314.313494,1.487756,-0.935243,1.310069,0.591572,0.804743,-0.049238,0.000000,0.000000,0.000000,-1,-0.124880,1.199610,-0.624565,0.177608,-0.179820,0.050947
"2018-06-07 01:01:54.324 +0000",1528333314.323568,1.505027,-0.941799,1.314547,0.587057,0.808618,-0.038666,0.000000,0.000000,0.000000,-1,-0.250880,1.309115,-0.643319,0.222422,-0.123712,0.106324
"2018-06-07 01:01:54.334 +0000",1528333314.333642,1.523380,-0.948455,1.320678,0.582278,0.812516,-0.027630,0.000000,0.000000,0.000000,-1,-0.446311,1.325009,-0.636372,0.236371,-0.091035,0.070492
"2018-06-07 01:01:54.344 +0000",1528333314.343716,1.544171,-0.954835,1.330800,0.577533,0.816219,-0.015381,0.000000,0.000000,0.000000,-1,-0.658627,1.210111,-0.602875,0.220822,-0.092601,-0.049149
"2018-06-07 01:01:54.354 +0000",1528333314.353790,1.565645,-0.960782,1.344122,0.572866,0.819640,-0.002951,0.000000,0.000000,0.000000,-1,-0.796254,0.986747,-0.570940,0.174372,-0.102843,-0.217279
"2018-06-07 01:01:54.364 +0000",1528333314.363864,1.586622,-0.966512,1.359560,0.568096,0.822909,0.008991,0.000000,0.000000,0.000000,-1,-0.751683,0.678487,-0.592376,0.098759,-0.079058,-0.388401
"2018-06-07 01:01:54.374 +0000",1528333314.373938,1.600140,-0.972779,1.370098,0.562757,0.826453,0.016518,0.000000,0.000000,0.000000,-1,-0.504165,0.423638,-0.650694,0.038714,-0.031608,-0.467553
"2018-06-07 01:01:54.384 +0000",1528333314.384012,1.607509,-0.979878,1.375073,0.556742,0.830430,0.020448,0.000000,0.000000,0.000000,-1,-0.170449,0.301967,-0.734636,0.045492,-0.022583,-0.411928
"2018-06-07 01:01:54.394 +0000",1528333314.394087,1.610596,-0.987859,1.375325,0.550036,0.834849,0.021903,0.000000,0.000000,0.000000,-1,0.064358,0.285364,-0.808366,0.093015,-0.047984,-0.272803
"2018-06-07 01:01:54.404 +0000",1528333314.404161,1.614121,-0.995898,1.375154,0.543232,0.839248,0.023550,0.000000,0.000000,0.000000,-1,0.147204,0.310785,-0.794499,0.192699,-0.074492,-0.180472
"2018-06-07 01:01:54.414 +0000",1528333314.414235,1.615547,-1.003206,1.372790,0.537057,0.843199,0.024050,0.000000,0.000000,0.000000,-1,0.161045,0.349892,-0.686852,0.318900,-0.079741,-0.187792
"2018-06-07 01:01:54.424 +0000",1528333314.424309,1.617708,-1.008951,1.370225,0.532156,0.846273,0.024983,0.000000,0.000000,0.000000,-1,0.163861,0.457880,-0.519819,0.409266,-0.059652,-0.230579
"2018-06-07 01:01:54.434 +0000",1528333314.434383,1.619640,-1.012933,1.366245,0.528736,0.848388,0.025846,0.000000,0.000000,0.000000,-1,0.266377,0.541937,-0.339101,0.402844,-0.022460,-0.330335
"2018-06-07 01:01:54.444 +0000",1528333314.444457,1.617393,-1.016214,1.358205,0.526009,0.850121,0.024528,0.000000,0.000000,0.000000,-1,0.631970,0.325524,-0.322282,0.341926,-0.012108,-0.544410
"2018-06-07 01:01:54.455 +0000",1528333314.454531,1.603550,-1.020064,1.340483,0.523023,0.852142,0.017137,0.000000,0.000000,0.000000,-1,1.036817,0.063304,-0.350863,0.282016,-0.015304,-0.688768
"2018-06-07 01:01:54.465 +0000",1528333314.464605,1.580083,-1.024122,1.314625,0.519820,0.854258,0.004828,0.000000,0.000000,0.000000,-1,1.458530,-0.227393,-0.383868,0.251619,-0.056757,-0.670279
"2018-06-07 01:01:54.475 +0000",1528333314.474679,1.541062,-1.028472,1.277176,0.515893,0.856511,-0.015344,0.000000,0.000000,0.000000,-1,2.095328,-0.869613,-0.479699,0.323020,-0.116628,-0.580328
"2018-06-07 01:01:54.485 +0000",1528333314.484754,1.485693,-1.031124,1.229928,0.511988,0.857877,-0.043677,0.000000,0.000000,0.000000,-1,2.568895,-1.736057,-0.355303,0.649755,-0.149976,-0.270150
"2018-06-07 01:01:54.495 +0000",1528333314.494828,1.425016,-1.026396,1.184913,0.512406,0.855438,-0.075233,0.000000,0.000000,0.000000,-1,2.204142,-2.309033,0.436616,1.075317,-0.083893,0.237678
"2018-06-07 01:01:54.505 +0000",1528333314.504902,1.374667,-1.012464,1.155143,0.519610,0.848140,-0.103238,0.000000,0.000000,0.000000,-1,1.650603,-2.528193,1.285930,1.006772,0.062291,0.372754
"2018-06-07 01:01:54.515 +0000",1528333314.514976,1.326095,-0.993349,1.131470,0.529619,0.837859,-0.132249,0.000000,0.000000,0.000000,-1,1.690332,-2.981845,1.639483,0.400373,0.152376,-0.010558
"2018-06-07 01:01:54.525 +0000",1528333314.525050,1.274387,-0.971135,1.108127,0.539747,0.825527,-0.164842,0.000000,0.000000,0.000000,-1,2.016434,-3.300856,1.750751,-0.062452,0.238224,-0.276412
"2018-06-07 01:01:54.535 +0000",1528333314.535124,1.223166,-0.947826,1.080686,0.548545,0.812149,-0.198763,0.000000,0.000000,0.000000,-1,2.275900,-2.648802,1.666002,-0.361274,0.407333,-0.137633
"2018-06-07 01:01:54.545 +0000",1528333314.545198,1.179953,-0.924124,1.051257,0.557092,0.798093,-0.229545,0.000000,0.000000,0.000000,-1,2.532256,-1.691394,1.538046,-0.467660,0.626696,-0.084038
"2018-06-07 01:01:54.555 +0000",1528333314.555272,1.144870,-0.899720,1.019360,0.566269,0.783153,-0.256916,0.000000,0.000000,0.000000,-1,2.807476,-0.749335,1.417533,-0.361267,0.927098,-0.100750
"2018-06-07 01:01:54.565 +0000",1528333314.565346,1.120232,-0.875824,0.987949,0.576453,0.768072,-0.278860,0.000000,0.000000,0.000000,-1,2.920655,0.044414,1.216286,-0.219290,1.247492,-0.051905
"2018-06-07 01:01:54.575 +0000",1528333314.575420,1.098772,-0.854127,0.956069,0.585044,0.753998,-0.298674,0.000000,0.000000,0.000000,-1,2.746026,0.320608,0.944276,-0.106635,1.389344,0.110350
"2018-06-07 01:01:54.585 +0000",1528333314.585495,1.080494,-0.835468,0.925943,0.591797,0.741610,-0.315888,0.000000,0.000000,0.000000,-1,2.575967,0.437757,0.643825,0.000839,1.309217,0.247071
"2018-06-07 01:01:54.596 +0000",1528333314.595569,1.062114,-0.819725,0.897297,0.596016,0.730958,-0.332356,0.000000,0.000000,0.000000,-1,2.392177,0.182489,0.399332,0.086067,1.121840,0.321446
"2018-06-07 01:01:54.606 +0000",1528333314.605643,1.044154,-0.806396,0.872744,0.598321,0.721798,-0.347873,0.000000,0.000000,0.000000,-1,2.227567,-0.276341,0.281129,0.147269,0.796574,0.294086
"2018-06-07 01:01:54.616 +0000",1528333314.615717,1.020816,-0.793493,0.849154,0.597931,0.712808,-0.366578,0.000000,0.000000,0.000000,-1,1.993889,-0.742389,0.267401,0.149185,0.453773,0.254060
"2018-06-07 01:01:54.626 +0000",1528333314.625791,0.997887,-0.781192,0.830298,0.596693,0.704126,-0.384915,0.000000,0.000000,0.000000,-1,1.686703,-1.010406,0.364133,0.167681,0.151678,0.220563
"2018-06-07 01:01:54.636 +0000",1528333314.635865,0.975667,-0.769741,0.819465,0.594632,0.695949,-0.402572,0.000000,0.000000,0.000000,-1,1.093191,-1.651902,0.589511,0.300144,-0.049190,0.235198
"2018-06-07 01:01:54.646 +0000",1528333314.645939,0.955810,-0.760838,0.821486,0.591559,0.689528,-0.417858,0.000000,0.000000,0.000000,-1,0.390349,-2.426654,0.843795,0.443384,-0.120757,0.458934
"2018-06-07 01:01:54.656 +0000",1528333314.656013,0.932559,-0.751282,0.827179,0.586949,0.682576,-0.435404,0.000000,0.000000,0.000000,-1,0.208318,-2.768394,1.064800,0.438426,-0.130193,0.411020
"2018-06-07 01:01:54.666 +0000",1528333314.666087,0.907687,-0.740262,0.834501,0.581833,0.674481,-0.454469,0.000000,0.000000,0.000000,-1,0.246124,-3.014894,1.232873,0.292969,-0.044583,0.180086
"2018-06-07 01:01:54.676 +0000",1528333314.676161,0.882839,-0.728357,0.844336,0.576524,0.665645,-0.473850,0.000000,0.000000,0.000000,-1,0.128159,-3.155463,1.429577,0.092329,0.060292,0.216144
"2018-06-07 01:01:54.686 +0000",1528333314.686235,0.862719,-0.717334,0.860787,0.572414,0.657378,-0.490095,0.000000,0.000000,0.000000,-1,-0.141320,-3.253763,1.655794,-0.039119,0.138505,0.406386
"2018-06-07 01:01:54.696 +0000",1528333314.696310,0.841325,-0.705829,0.879078,0.567400,0.648665,-0.507236,0.000000,0.000000,0.000000,-1,-0.318712,-3.331650,1.787202,-0.178072,0.207841,0.573307
"2018-06-07 01:01:54.706 +0000",1528333314.706384,0.819469,-0.695173,0.898573,0.561198,0.640519,-0.524204,0.000000,0.000000,0.000000,-1,-0.395079,-3.444824,1.761232,-0.327678,0.190704,0.634723
"2018-06-07 01:01:54.716 +0000",1528333314.716458,0.796624,-0.686228,0.917304,0.553152,0.633624,-0.540870,0.000000,0.000000,0.000000,-1,-0.425220,-3.426587,1.580646,-0.482581,0.093290,0.648017
"2018-06-07 01:01:54.727 +0000",1528333314.726532,0.776997,-0.680465,0.934860,0.544982,0.629154,-0.554217,0.000000,0.000000,0.000000,-1,-0.348896,-3.177196,1.321966,-0.657195,-0.026173,0.656756
"2018-06-07 01:01:54.737 +0000",1528333314.736606,0.753710,-0.675293,0.949083,0.534149,0.625126,-0.569122,0.000000,0.000000,0.000000,-1,-0.404829,-3.197218,1.085394,-0.726639,-0.115727,0.744567
"2018-06-07 01:01:54.747 +0000",1528333314.746680,0.730331,-0.672557,0.960978,0.521838,0.622988,-0.582725,0.000000,0.000000,0.000000,-1,-0.423715,-2.974249,0.781679,-0.739260,-0.200396,0.809104
"2018-06-07 01:01:54.757 +0000",1528333314.756754,0.709731,-0.672104,0.969629,0.509908,0.622634,-0.593564,0.000000,0.000000,0.000000,-1,-0.409114,-2.443720,0.456192,-0.706197,-0.295409,0.779828
"2018-06-07 01:01:54.767 +0000",1528333314.766828,0.694925,-0.675936,0.976681,0.499533,0.625628,-0.599212,0.000000,0.000000,0.000000,-1,-0.459809,-1.870632,0.148190,-0.639456,-0.355135,0.753509
"2018-06-07 01:01:54.777 +0000",1528333314.776902,0.682089,-0.680378,0.981691,0.490043,0.629087,-0.603411,0.000000,0.000000,0.000000,-1,-0.636469,-1.503816,-0.007383,-0.569145,-0.372373,0.742190
"2018-06-07 01:01:54.787 +0000",1528333314.786977,0.673001,-0.686755,0.987336,0.482029,0.634031,-0.604690,0.000000,0.000000,0.000000,-1,-0.806459,-1.173599,-0.069496,-0.463902,-0.360349,0.716766
"2018-06-07 01:01:54.797 +0000",1528333314.797051,0.667194,-0.694616,0.994224,0.475410,0.640091,-0.603545,0.000000,0.000000,0.000000,-1,-0.991531,-0.983119,-0.065291,-0.389076,-0.345810,0.653319
"2018-06-07 01:01:54.807 +0000",1528333314.807125,0.665303,-0.705379,1.004088,0.469988,0.648323,-0.598987,0.000000,0.000000,0.000000,-1,-1.189462,-0.862009,-0.019308,-0.336901,-0.332298,0.629642
"2018-06-07 01:01:54.817 +0000",1528333314.817199,0.664772,-0.715968,1.014735,0.465409,0.656348,-0.593800,0.000000,0.000000,0.000000,-1,-1.366082,-0.704429,-0.017370,-0.359345,-0.306113,0.566441
"2018-06-07 01:01:54.827 +0000",1528333314.827273,0.667265,-0.727985,1.027294,0.461973,0.665367,-0.586400,0.000000,0.000000,0.000000,-1,-1.568094,-0.529445,0.006190,-0.398893,-0.308052,0.489018
"2018-06-07 01:01:54.837 +0000",1528333314.837347,0.673463,-0.741699,1.041787,0.459864,0.675542,-0.576338,0.000000,0.000000,0.000000,-1,-1.785506,-0.285117,-0.024870,-0.483637,-0.325459,0.415129
"2018-06-07 01:01:54.847 +0000",1528333314.847421,0.685106,-0.759031,1.058799,0.459064,0.688219,-0.561794,0.000000,0.000000,0.000000,-1,-2.050974,0.039399,-0.099689,-0.584782,-0.368013,0.339793
"2018-06-07 01:01:54.857 +0000",1528333314.857495,0.701689,-0.777863,1.077384,0.459869,0.701758,-0.544107,0.000000,0.000000,0.000000,-1,-2.366765,0.480250,-0.200945,-0.615356,-0.396522,0.280237
"2018-06-07 01:01:54.868 +0000",1528333314.867569,0.724879,-0.799402,1.098439,0.462230,0.716939,-0.521860,0.000000,0.000000,0.000000,-1,-2.644658,0.917957,-0.313054,-0.575329,-0.382757,0.161676
"2018-06-07 01:01:54.878 +0000",1528333314.877643,0.752705,-0.822393,1.121657,0.465178,0.732777,-0.496633,0.000000,0.000000,0.000000,-1,-2.776764,1.131895,-0.370214,-0.432890,-0.333546,-0.042383
"2018-06-07 01:01:54.888 +0000",1528333314.887718,0.784311,-0.845610,1.147180,0.468494,0.748376,-0.469514,0.000000,0.000000,0.000000,-1,-2.680620,1.235141,-0.319579,-0.176075,-0.235223,-0.261123
"2018-06-07 01:01:54.898 +0000",1528333314.897792,0.814128,-0.864085,1.171681,0.472148,0.760502,-0.445769,0.000000,0.000000,0.000000,-1,-2.310956,1.052143,-0.153157,0.115331,-0.047138,-0.560716
"2018-06-07 01:01:54.908 +0000",1528333314.907866,0.836238,-0.876364,1.192439,0.474921,0.768417,-0.428930,0.000000,0.000000,0.000000,-1,-1.598756,0.446209,0.048898,0.423821,0.286804,-0.999812
"2018-06-07 01:01:54.918 +0000",1528333314.917940,0.844143,-0.881579,1.203799,0.475295,0.771744,-0.422494,0.000000,0.000000,0.000000,-1,-0.642674,-0.247328,0.098473,0.711655,0.904129,-1.485114
"2018-06-07 01:01:54.928 +0000",1528333314.928014,0.843353,-0.881744,1.208982,0.474867,0.771849,-0.422785,0.000000,0.000000,0.000000,-1,0.009119,-0.597811,0.339057,1.088747,1.445772,-1.443746
"2018-06-07 01:01:54.938 +0000",1528333314.938088,0.839490,-0.875487,1.213276,0.476815,0.767856,-0.427833,0.000000,0.000000,0.000000,-1,0.258301,-0.764548,0.737065,1.086661,1.228742,-0.899636
"2018-06-07 01:01:54.948 +0000",1528333314.948162,0.833807,-0.866594,1.219030,0.479414,0.762128,-0.435108,0.000000,0.000000,0.000000,-1,0.327452,-1.087934,0.936036,0.511812,0.721759,-0.549358
"2018-06-07 01:01:54.958 +0000",1528333314.958236,0.824410,-0.857438,1.224743,0.480407,0.756168,-0.444314,0.000000,0.000000,0.000000,-1,0.351240,-1.456539,0.892959,-0.062927,0.271938,-0.333137
"2018-06-07 01:01:54.968 +0000",1528333314.968310,0.811928,-0.850482,1.229082,0.478629,0.751599,-0.453883,0.000000,0.000000,0.000000,-1,0.489316,-1.662905,0.718864,-0.457297,-0.135189,-0.386189
"2018-06-07 01:01:54.978 +0000",1528333314.978384,0.802634,-0.840576,1.226397,0.479721,0.745028,-0.463463,0.000000,0.000000,0.000000,-1,0.921266,-0.256785,0.511139,-0.831497,-0.119021,-0.664681
"2018-06-07 01:01:54.988 +0000",1528333314.988458,0.787769,-0.838959,1.214723,0.473632,0.743948,-0.471392,0.000000,0.000000,0.000000,-1,0.554062,-1.026179,-0.815453,-1.413162,1.061701,-0.038694
"2018-06-07 01:01:54.999 +0000",1528333314.998533,0.751625,-0.848911,1.193250,0.451211,0.750561,-0.482766,0.000000,0.000000,0.000000,-1,0.195152,-2.108110,-1.952584,-1.080301,1.967319,-0.125983
"2018-06-07 01:01:55.009 +0000",1528333315.008607,0.717156,-0.865645,1.164903,0.425991,0.761513,-0.488494,0.000000,0.000000,0.000000,-1,0.395605,-0.979598,-2.344522,-0.260311,1.884498,0.646453
"2018-06-07 01:01:55.019 +0000",1528333315.018681,0.693842,-0.871988,1.136265,0.411389,0.765609,-0.494568,0.000000,0.000000,0.000000,-1,0.796112,0.068794,-1.559320,0.295093,1.044358,0.800248
"2018-06-07 01:01:55.029 +0000",1528333315.028755,0.687728,-0.871633,1.117292,0.408531,0.765381,-0.497284,0.000000,0.000000,0.000000,-1,0.747947,1.131218,-0.752612,0.622704,-0.112472,0.929718
"2018-06-07 01:01:55.039 +0000",1528333315.038829,0.695732,-0.870867,1.105929,0.412873,0.764888,-0.494448,0.000000,0.000000,0.000000,-1,0.461332,1.748234,-0.434997,0.523543,-0.695308,1.595812
"2018-06-07 01:01:55.049 +0000",1528333315.048903,0.711598,-0.869690,1.101652,0.421254,0.764129,-0.488517,0.000000,0.000000,0.000000,-1,0.188022,1.951023,-0.020734,0.266903,-0.887908,1.635139
"2018-06-07 01:01:55.059 +0000",1528333315.058977,0.733838,-0.868098,1.104800,0.432827,0.763101,-0.479931,0.000000,0.000000,0.000000,-1,-0.056230,1.963162,0.326219,-0.023236,-0.879281,1.190274
"2018-06-07 01:01:55.069 +0000",1528333315.069051,0.759215,-0.866385,1.110118,0.445765,0.761993,-0.469741,0.000000,0.000000,0.000000,-1,-0.130250,2.174665,0.364651,-0.126658,-0.679840,0.909118
"2018-06-07 01:01:55.079 +0000",1528333315.079125,0.788386,-0.866978,1.117952,0.458956,0.762377,-0.456221,0.000000,0.000000,0.000000,-1,-0.513265,2.370397,0.294029,-0.182512,-0.439547,1.038390
"2018-06-07 01:01:55.089 +0000",1528333315.089199,0.825843,-0.872538,1.130819,0.472595,0.765963,-0.435834,0.000000,0.000000,0.000000,-1,-1.136318,2.883149,0.120542,-0.194824,-0.087222,1.121548
"2018-06-07 01:01:55.099 +0000",1528333315.099274,0.871445,-0.883363,1.145971,0.485597,0.772877,-0.408475,0.000000,0.000000,0.000000,-1,-1.510861,3.480983,-0.282379,-0.160433,0.438930,1.021070
"2018-06-07 01:01:55.109 +0000",1528333315.109348,0.918160,-0.898431,1.161505,0.494834,0.782350,-0.378237,0.000000,0.000000,0.000000,-1,-1.722347,3.385259,-0.632834,-0.008216,0.820005,0.729144
"2018-06-07 01:01:55.119 +0000",1528333315.119422,0.960886,-0.913272,1.176418,0.500964,0.791508,-0.350067,0.000000,0.000000,0.000000,-1,-1.536109,2.964194,-0.623729,0.331983,0.871731,0.491439
"2018-06-07 01:01:55.129 +0000",1528333315.129496,0.998338,-0.923615,1.189559,0.506811,0.797787,-0.326611,0.000000,0.000000,0.000000,-1,-1.121078,2.599635,-0.324559,0.594125,0.880283,0.359387
"2018-06-07 01:01:55.140 +0000",1528333315.139570,1.033470,-0.928422,1.201833,0.514670,0.800675,-0.306641,0.000000,0.000000,0.000000,-1,-0.811116,2.518660,0.081089,0.667611,0.858291,0.316636
"2018-06-07 01:01:55.150 +0000",1528333315.149644,1.071570,-0.928996,1.215186,0.525573,0.801020,-0.286594,0.000000,0.000000,0.000000,-1,-0.704744,2.806257,0.418359,0.563432,0.700567,0.280750
"2018-06-07 01:01:55.160 +0000",1528333315.159718,1.114372,-0.927938,1.229007,0.538115,0.800386,-0.264216,0.000000,0.000000,0.000000,-1,-0.675039,3.261739,0.460491,0.183397,0.435729,0.227778
"2018-06-07 01:01:55.170 +0000",1528333315.169792,1.159068,-0.927396,1.241229,0.549781,0.800060,-0.240082,0.000000,0.000000,0.000000,-1,-0.621627,3.506207,0.313716,-0.224891,0.217533,0.158265
"2018-06-07 01:01:55.180 +0000",1528333315.179866,1.200882,-0.927653,1.250661,0.559144,0.800215,-0.216816,0.000000,0.000000,0.000000,-1,-0.487875,3.332712,0.151559,-0.450990,0.046114,0.101505
"2018-06-07 01:01:55.190 +0000",1528333315.189940,1.235348,-0.928759,1.256190,0.565447,0.800877,-0.197129,0.000000,0.000000,0.000000,-1,-0.294805,2.849923,-0.037450,-0.585253,-0.084187,0.089508
"2018-06-07 01:01:55.200 +0000",1528333315.200015,1.261308,-0.930533,1.257181,0.569019,0.801939,-0.181951,0.000000,0.000000,0.000000,-1,-0.047513,2.392331,-0.178106,-0.591953,-0.152464,0.085653
"2018-06-07 01:01:55.210 +0000",1528333315.210089,1.280237,-0.932551,1.254077,0.570809,0.803142,-0.170685,0.000000,0.000000,0.000000,-1,0.162496,2.055168,-0.265619,-0.477563,-0.209270,0.040222
"2018-06-07 01:01:55.220 +0000",1528333315.220163,1.295435,-0.935151,1.248624,0.571326,0.804689,-0.161422,0.000000,0.000000,0.000000,-1,0.251649,1.920825,-0.369476,-0.342444,-0.258256,0.025985
"2018-06-07 01:01:55.230 +0000",1528333315.230237,1.309976,-0.939592,1.242774,0.570154,0.807317,-0.152174,0.000000,0.000000,0.000000,-1,0.191255,1.921517,-0.574784,-0.214380,-0.229925,0.042860
"2018-06-07 01:01:55.240 +0000",1528333315.240311,1.326055,-0.946859,1.238383,0.566821,0.811584,-0.141562,0.000000,0.000000,0.000000,-1,0.017724,1.944024,-0.821720,-0.073580,-0.131668,0.112112
"2018-06-07 01:01:55.250 +0000",1528333315.250386,1.348297,-0.957829,1.240988,0.561110,0.817945,-0.126949,0.000000,0.000000,0.000000,-1,-0.225830,1.809990,-0.958159,0.105852,-0.043622,0.162563
"2018-06-07 01:01:55.260 +0000",1528333315.260460,1.367782,-0.968046,1.243917,0.555262,0.823780,-0.114301,0.000000,0.000000,0.000000,-1,-0.422174,1.659009,-0.948467,0.268926,-0.070179,0.169415
"2018-06-07 01:01:55.271 +0000",1528333315.270534,1.389592,-0.977913,1.250558,0.549601,0.829333,-0.100694,0.000000,0.000000,0.000000,-1,-0.597128,1.617557,-0.865363,0.359548,-0.180209,0.135057
"2018-06-07 01:01:55.281 +0000",1528333315.280608,1.415299,-0.986636,1.261588,0.544840,0.834175,-0.085411,0.000000,0.000000,0.000000,-1,-0.794764,1.649290,-0.709925,0.384131,-0.281044,0.059272
"2018-06-07 01:01:55.291 +0000",1528333315.290682,1.449037,-0.994676,1.280778,0.540736,0.838583,-0.066167,0.000000,0.000000,0.000000,-1,-0.947302,1.587754,-0.534424,0.368017,-0.328588,-0.096294
"2018-06-07 01:01:55.301 +0000",1528333315.300756,1.477305,-1.000239,1.297747,0.537737,0.841600,-0.050421,0.000000,0.000000,0.000000,-1,-0.960415,1.302970,-0.433036,0.297072,-0.292772,-0.279505
"2018-06-07 01:01:55.311 +0000",1528333315.310831,1.500267,-1.005412,1.313274,0.534403,0.844383,-0.037754,0.000000,0.000000,0.000000,-1,-0.829595,0.870904,-0.455030,0.201544,-0.224723,-0.391339
"2018-06-07 01:01:55.321 +0000",1528333315.320905,1.517705,-1.011209,1.325974,0.530083,0.847474,-0.028169,0.000000,0.000000,0.000000,-1,-0.666784,0.624808,-0.562608,0.123481,-0.185060,-0.349578
"2018-06-07 01:01:55.331 +0000",1528333315.330979,1.538226,-1.018629,1.340482,0.524250,0.851390,-0.017081,0.000000,0.000000,0.000000,-1,-0.562075,0.738624,-0.671157,0.092465,-0.174876,-0.237375
"2018-06-07 01:01:55.341 +0000",1528333315.341053,1.556297,-1.025916,1.349936,0.518256,0.855189,-0.007515,0.000000,0.000000,0.000000,-1,-0.489559,1.079334,-0.718736,0.101434,-0.177211,-0.147301
"2018-06-07 01:01:55.351 +0000",1528333315.351127,1.576359,-1.033309,1.358809,0.511966,0.858998,0.002848,0.000000,0.000000,0.000000,-1,-0.450742,1.262840,-0.735501,0.097409,-0.164494,-0.116739
"2018-06-07 01:01:55.361 +0000",1528333315.361201,1.596112,-1.040785,1.367888,0.505375,0.862801,0.012797,0.000000,0.000000,0.000000,-1,-0.448401,1.134472,-0.750939,0.069454,-0.138085,-0.148768
"2018-06-07 01:01:55.371 +0000",1528333315.371275,1.617980,-1.048856,1.380998,0.498002,0.866853,0.023515,0.000000,0.000000,0.000000,-1,-0.424821,0.868998,-0.779732,0.035872,-0.124635,-0.206514
"2018-06-07 01:01:55.381 +0000",1528333315.381349,1.632000,-1.056873,1.389404,0.490672,0.870822,0.030068,0.000000,0.000000,0.000000,-1,-0.347506,0.601567,-0.830167,-0.000025,-0.110019,-0.246850
"2018-06-07 01:01:55.391 +0000",1528333315.391423,1.641669,-1.065774,1.396085,0.482606,0.875164,0.034261,0.000000,0.000000,0.000000,-1,-0.236228,0.321244,-0.924818,0.008361,-0.090603,-0.242894
"2018-06-07 01:01:55.401 +0000",1528333315.401497,1.648783,-1.075394,1.401818,0.473935,0.879777,0.037036,0.000000,0.000000,0.000000,-1,-0.192512,0.169052,-0.990975,0.084125,-0.053758,-0.165225
"2018-06-07 01:01:55.412 +0000",1528333315.411571,1.659946,-1.085901,1.412519,0.464258,0.884724,0.041499,0.000000,0.000000,0.000000,-1,-0.244671,0.046088,-1.022407,0.225866,-0.028110,-0.146067
"2018-06-07 01:01:55.422 +0000",1528333315.421646,1.667451,-1.095362,1.419623,0.455582,0.889094,0.044172,0.000000,0.000000,0.000000,-1,-0.224427,0.159956,-0.937146,0.371689,-0.030085,-0.169263
"2018-06-07 01:01:55.432 +0000",1528333315.431720,1.673873,-1.103362,1.424072,0.448198,0.892727,0.046363,0.000000,0.000000,0.000000,-1,-0.077748,0.262833,-0.765080,0.467329,-0.040646,-0.245277
"2018-06-07 01:01:55.442 +0000",1528333315.441794,1.677086,-1.109579,1.423656,0.442519,0.895512,0.047213,0.000000,0.000000,0.000000,-1,0.139002,0.395397,-0.557591,0.504228,-0.052570,-0.332125
"2018-06-07 01:01:55.452 +0000",1528333315.451868,1.682034,-1.114450,1.422591,0.437940,0.897668,0.048917,0.000000,0.000000,0.000000,-1,0.349608,0.502768,-0.367372,0.459399,-0.038370,-0.372922
"2018-06-07 01:01:55.462 +0000",1528333315.461942,1.676331,-1.117813,1.411203,0.435206,0.899146,0.046101,0.000000,0.000000,0.000000,-1,0.601981,0.410796,-0.257426,0.364797,-0.021765,-0.453419
"2018-06-07 01:01:55.472 +0000",1528333315.472016,1.657902,-1.121358,1.389686,0.432804,0.900691,0.037796,0.000000,0.000000,0.000000,-1,1.108764,-0.048813,-0.268528,0.303493,-0.032390,-0.529678
"2018-06-07 01:01:55.482 +0000",1528333315.482090,1.620245,-1.125675,1.353638,0.430033,0.902559,0.021282,0.000000,0.000000,0.000000,-1,1.706366,-0.655076,-0.325440,0.441961,-0.018419,-0.413311
"2018-06-07 01:01:55.492 +0000",1528333315.492164,1.578774,-1.127842,1.318045,0.428589,0.903489,0.003419,0.000000,0.000000,0.000000,-1,1.657994,-1.139657,0.015316,0.811569,0.107207,-0.014680
"2018-06-07 01:01:55.502 +0000",1528333315.502238,1.539674,-1.121449,1.290645,0.434160,0.900731,-0.013516,0.000000,0.000000,0.000000,-1,1.022851,-1.496161,0.839678,1.123442,0.275813,0.271543
"2018-06-07 01:01:55.512 +0000",1528333315.512312,1.506827,-1.107414,1.272608,0.446055,0.894546,-0.028573,0.000000,0.000000,0.000000,-1,0.861597,-1.733150,1.487972,0.838368,0.323655,0.009088
"2018-06-07 01:01:55.522 +0000",1528333315.522386,1.463675,-1.089773,1.249477,0.460028,0.886522,-0.049468,0.000000,0.000000,0.000000,-1,1.334492,-2.417638,1.677438,0.194666,0.285673,-0.587098
"2018-06-07 01:01:55.532 +0000",1528333315.532461,1.412434,-1.071907,1.220058,0.472458,0.878115,-0.075451,0.000000,0.000000,0.000000,-1,1.928900,-2.570323,1.570219,-0.315902,0.217253,-0.676609
"2018-06-07 01:01:55.543 +0000",1528333315.542535,1.353954,-1.053288,1.178210,0.483125,0.869055,-0.106435,0.000000,0.000000,0.000000,-1,2.448542,-2.042349,1.403840,-0.582139,0.096415,-0.329752
"2018-06-07 01:01:55.553 +0000",1528333315.552609,1.298072,-1.033429,1.133365,0.492953,0.859059,-0.137875,0.000000,0.000000,0.000000,-1,2.694206,-1.588114,1.362649,-0.564852,0.092494,-0.131351
"2018-06-07 01:01:55.563 +0000",1528333315.562683,1.248643,-1.012424,1.089828,0.502546,0.848119,-0.167740,0.000000,0.000000,0.000000,-1,2.788644,-1.082666,1.312272,-0.568098,0.328532,-0.022857
"2018-06-07 01:01:55.573 +0000",1528333315.572757,1.208029,-0.992856,1.049431,0.510742,0.837590,-0.193860,0.000000,0.000000,0.000000,-1,2.866708,-0.640158,1.076739,-0.522857,0.739422,-0.043506
"2018-06-07 01:01:55.583 +0000",1528333315.582831,1.168012,-0.975078,1.006487,0.516196,0.827746,-0.219941,0.000000,0.000000,0.000000,-1,2.826785,-0.361775,0.633398,-0.340217,1.178419,-0.085006
"2018-06-07 01:01:55.593 +0000",1528333315.592905,1.131195,-0.961312,0.963986,0.518013,0.819943,-0.243619,0.000000,0.000000,0.000000,-1,2.708412,-0.139446,0.154579,-0.077141,1.346042,0.033566
"2018-06-07 01:01:55.603 +0000",1528333315.602979,1.096058,-0.950495,0.922361,0.516994,0.813703,-0.265705,0.000000,0.000000,0.000000,-1,2.579405,-0.113297,-0.146231,0.169041,1.169848,0.144901
"2018-06-07 01:01:55.613 +0000",1528333315.613053,1.064523,-0.941337,0.885061,0.514856,0.808346,-0.285475,0.000000,0.000000,0.000000,-1,2.393690,-0.205968,-0.160058,0.323310,0.859898,0.208693
"2018-06-07 01:01:55.623 +0000",1528333315.623127,1.034352,-0.930504,0.852445,0.513507,0.801921,-0.305334,0.000000,0.000000,0.000000,-1,2.133039,-0.453385,0.029132,0.403089,0.501561,0.195730
"2018-06-07 01:01:55.633 +0000",1528333315.633201,1.008032,-0.918646,0.825957,0.513300,0.794781,-0.323793,0.000000,0.000000,0.000000,-1,1.911089,-0.516262,0.216620,0.384664,0.240681,0.129274
"2018-06-07 01:01:55.643 +0000",1528333315.643276,0.986091,-0.906684,0.805178,0.513965,0.787464,-0.340201,0.000000,0.000000,0.000000,-1,1.621310,-0.577988,0.346182,0.271024,0.128185,0.131583
"2018-06-07 01:01:55.653 +0000",1528333315.653350,0.968188,-0.896120,0.792874,0.514617,0.780909,-0.354043,0.000000,0.000000,0.000000,-1,1.171831,-1.025701,0.529844,0.238313,0.041372,0.194985
"2018-06-07 01:01:55.663 +0000",1528333315.663424,0.949034,-0.887540,0.792926,0.513169,0.775521,-0.367723,0.000000,0.000000,0.000000,-1,0.246886,-2.193966,0.758752,0.260772,0.039115,0.468172
"2018-06-07 01:01:55.673 +0000",1528333315.673498,0.931684,-0.880897,0.803572,0.510836,0.771310,-0.379636,0.000000,0.000000,0.000000,-1,-0.232343,-2.580441,0.979232,0.210416,0.014747,0.661832
"2018-06-07 01:01:55.684 +0000",1528333315.683572,0.917236,-0.873413,0.816926,0.509867,0.766525,-0.390475,0.000000,0.000000,0.000000,-1,-0.189685,-2.382318,1.144284,0.075536,-0.041870,0.425876
"2018-06-07 01:01:55.694 +0000",1528333315.693646,0.905450,-0.864266,0.829930,0.510724,0.760619,-0.400769,0.000000,0.000000,0.000000,-1,0.064152,-2.174786,1.300275,-0.093259,-0.068114,0.190152
"2018-06-07 01:01:55.704 +0000",1528333315.703720,0.891974,-0.852168,0.841389,0.512402,0.752709,-0.413363,0.000000,0.000000,0.000000,-1,0.182912,-2.220022,1.433252,-0.220364,-0.054864,0.182528
"2018-06-07 01:01:55.714 +0000",1528333315.713794,0.878627,-0.839728,0.854233,0.514009,0.744461,-0.426108,0.000000,0.000000,0.000000,-1,0.094205,-2.289725,1.504245,-0.315080,-0.026261,0.313742
"2018-06-07 01:01:55.724 +0000",1528333315.723868,0.866571,-0.828295,0.868918,0.515287,0.736780,-0.437756,0.000000,0.000000,0.000000,-1,-0.057997,-2.264834,1.488531,-0.389799,-0.030511,0.446682
"2018-06-07 01:01:55.734 +0000",1528333315.733942,0.856850,-0.819553,0.885221,0.515856,0.730841,-0.446945,0.000000,0.000000,0.000000,-1,-0.154019,-2.204360,1.401800,-0.422472,-0.065619,0.493027
"2018-06-07 01:01:55.744 +0000",1528333315.744016,0.845725,-0.810797,0.899957,0.515622,0.724836,-0.456883,0.000000,0.000000,0.000000,-1,-0.183629,-2.152357,1.284773,-0.421857,-0.135283,0.477452
"2018-06-07 01:01:55.754 +0000",1528333315.754090,0.834486,-0.803107,0.913071,0.514570,0.719518,-0.466378,0.000000,0.000000,0.000000,-1,-0.152063,-2.015471,1.123752,-0.438322,-0.185811,0.475701
"2018-06-07 01:01:55.764 +0000",1528333315.764165,0.822638,-0.797107,0.924755,0.512163,0.715338,-0.475371,0.000000,0.000000,0.000000,-1,-0.224208,-2.023707,0.945337,-0.465929,-0.208441,0.509901
"2018-06-07 01:01:55.774 +0000",1528333315.774239,0.812879,-0.795256,0.938669,0.508461,0.714043,-0.481255,0.000000,0.000000,0.000000,-1,-0.427441,-2.056932,0.880091,-0.441154,-0.231926,0.608758
"2018-06-07 01:01:55.784 +0000",1528333315.784313,0.803143,-0.793365,0.953501,0.504722,0.712718,-0.487120,0.000000,0.000000,0.000000,-1,-0.671834,-1.980545,0.827091,-0.445090,-0.241176,0.705610
"2018-06-07 01:01:55.794 +0000",1528333315.794387,0.795671,-0.793869,0.968634,0.500811,0.713071,-0.490626,0.000000,0.000000,0.000000,-1,-0.825069,-1.752980,0.647395,-0.513171,-0.259488,0.681986
"2018-06-07 01:01:55.804 +0000",1528333315.804461,0.790024,-0.796792,0.982616,0.496550,0.715117,-0.491978,0.000000,0.000000,0.000000,-1,-0.918096,-1.482227,0.418208,-0.562178,-0.298278,0.610233
"2018-06-07 01:01:55.815 +0000",1528333315.814535,0.788380,-0.804341,0.997263,0.491897,0.720374,-0.488973,0.000000,0.000000,0.000000,-1,-1.027470,-1.256874,0.271750,-0.579697,-0.351630,0.563375
