timestamp,timeIntervalSince1970,attitude.roll,attitude.pitch,attitude.yaw,gravity.x,gravity.y,gravity.z,magneticField.x,magneticField.y,magneticField.z,magneticField.accuracy,rotationRate.x,rotationRate.y,rotationRate.z,userAcceleration.x,userAcceleration.y,userAcceleration.z
"2018-06-07 01:04:32.237 +0000",1528333472.237090,0.029021,-0.038502,0.001117,0.028996,0.038492,-0.998838,0.000000,0.000000,0.000000,-1,-0.764543,1.475692,-0.110213,0.014004,0.057776,0.125211
"2018-06-07 01:04:32.247 +0000",1528333472.247164,0.044749,-0.047379,-0.000442,0.044684,0.047361,-0.997878,0.000000,0.000000,0.000000,-1,-0.904618,1.599780,-0.212793,0.024698,0.069094,0.130599
"2018-06-07 01:04:32.257 +0000",1528333472.257237,0.061275,-0.056869,-0.002689,0.061138,0.056839,-0.996510,0.000000,0.000000,0.000000,-1,-0.925120,1.658210,-0.285720,0.059559,0.058640,0.079258
"2018-06-07 01:04:32.267 +0000",1528333472.267312,0.077323,-0.065528,-0.005249,0.077081,0.065481,-0.994872,0.000000,0.000000,0.000000,-1,-0.800824,1.581867,-0.322798,0.102775,0.017420,-0.007279
"2018-06-07 01:04:32.277 +0000",1528333472.277386,0.092721,-0.072730,-0.008308,0.092343,0.072665,-0.993072,0.000000,0.000000,0.000000,-1,-0.657508,1.559457,-0.381277,0.100406,0.010632,-0.043991
"2018-06-07 01:04:32.287 +0000",1528333472.287460,0.110541,-0.080077,-0.012584,0.109962,0.079992,-0.990712,0.000000,0.000000,0.000000,-1,-0.716477,1.916744,-0.542525,0.054314,0.036418,0.083561
"2018-06-07 01:04:32.298 +0000",1528333472.297534,0.133880,-0.090611,-0.018171,0.132933,0.090488,-0.986986,0.000000,0.000000,0.000000,-1,-1.075984,2.515851,-0.715289,0.017015,0.045377,0.255525
"2018-06-07 01:04:32.308 +0000",1528333472.307608,0.162789,-0.105755,-0.023734,0.161165,0.105558,-0.981266,0.000000,0.000000,0.000000,-1,-1.506727,3.042897,-0.766551,0.057646,0.021517,0.289250
"2018-06-07 01:04:32.318 +0000",1528333472.317682,0.194545,-0.123611,-0.027589,0.191845,0.123297,-0.973650,0.000000,0.000000,0.000000,-1,-1.708382,3.201027,-0.650536,0.152271,-0.032125,0.214036
"2018-06-07 01:04:32.328 +0000",1528333472.327755,0.223380,-0.140863,-0.029256,0.219333,0.140397,-0.965496,0.000000,0.000000,0.000000,-1,-1.591650,2.723080,-0.473636,0.218717,-0.040758,0.023372
"2018-06-07 01:04:32.338 +0000",1528333472.337830,0.241724,-0.154131,-0.029607,0.236539,0.153521,-0.959417,0.000000,0.000000,0.000000,-1,-1.143393,1.442436,-0.284772,0.277224,0.074232,-0.184611
"2018-06-07 01:04:32.348 +0000",1528333472.347903,0.244331,-0.161759,-0.028413,0.238749,0.161054,-0.957633,0.000000,0.000000,0.000000,-1,-0.658903,-0.100899,0.005431,0.382207,0.205294,-0.209405
"2018-06-07 01:04:32.358 +0000",1528333472.357976,0.239399,-0.167229,-0.025107,0.233811,0.166451,-0.957928,0.000000,0.000000,0.000000,-1,-0.627676,-0.607873,0.241603,0.390502,0.171821,-0.021869
"2018-06-07 01:04:32.368 +0000",1528333472.368051,0.236429,-0.174249,-0.017872,0.230685,0.173369,-0.957459,0.000000,0.000000,0.000000,-1,-0.939821,-0.297541,0.639058,0.463620,0.154146,0.180954
"2018-06-07 01:04:32.378 +0000",1528333472.378125,0.241908,-0.185614,-0.004647,0.235440,0.184550,-0.954206,0.000000,0.000000,0.000000,-1,-1.585848,0.527577,1.093633,0.430728,0.198659,0.387388
"2018-06-07 01:04:32.388 +0000",1528333472.388199,0.252246,-0.201888,0.012605,0.244510,0.200519,-0.948687,0.000000,0.000000,0.000000,-1,-2.046184,0.707891,1.245802,0.328381,0.266629,0.248369
"2018-06-07 01:04:32.398 +0000",1528333472.398273,0.266668,-0.219229,0.030109,0.257212,0.217477,-0.941566,0.000000,0.000000,0.000000,-1,-2.114420,1.180007,1.182793,0.225943,0.317283,0.073631
"2018-06-07 01:04:32.408 +0000",1528333472.408346,0.282584,-0.237308,0.047404,0.271024,0.235087,-0.933424,0.000000,0.000000,0.000000,-1,-2.192562,1.148283,1.104357,0.209247,0.164754,0.105268
"2018-06-07 01:04:32.418 +0000",1528333472.418420,0.297242,-0.253979,0.064194,0.283488,0.251257,-0.925475,0.000000,0.000000,0.000000,-1,-1.973724,1.044750,1.069134,0.146596,-0.008932,-0.109422
"2018-06-07 01:04:32.428 +0000",1528333472.428494,0.311852,-0.267409,0.079657,0.295917,0.264234,-0.917940,0.000000,0.000000,0.000000,-1,-1.633855,1.051520,0.988778,0.134168,-0.021909,-0.116957
"2018-06-07 01:04:32.439 +0000",1528333472.438568,0.326796,-0.277848,0.093166,0.308699,0.274287,-0.910753,0.000000,0.000000,0.000000,-1,-1.307500,1.176950,0.875452,0.035387,-0.029933,-0.218123
"2018-06-07 01:04:32.449 +0000",1528333472.448642,0.345110,-0.285455,0.105020,0.324610,0.281594,-0.902958,0.000000,0.000000,0.000000,-1,-1.017474,1.614968,0.803994,0.040533,-0.054406,-0.184444
"2018-06-07 01:04:32.459 +0000",1528333472.458716,0.369705,-0.290938,0.116125,0.346155,0.286851,-0.893249,0.000000,0.000000,0.000000,-1,-0.842763,2.325700,0.806737,0.075949,-0.037401,-0.115846
"2018-06-07 01:04:32.469 +0000",1528333472.468790,0.403129,-0.294871,0.127898,0.375367,0.290617,-0.880137,0.000000,0.000000,0.000000,-1,-0.774147,3.200309,0.927445,0.138153,-0.024427,-0.060979
"2018-06-07 01:04:32.479 +0000",1528333472.478864,0.445857,-0.298017,0.142023,0.412223,0.293625,-0.862471,0.000000,0.000000,0.000000,-1,-0.878566,4.033373,1.154918,0.262154,-0.030655,0.053587
"2018-06-07 01:04:32.489 +0000",1528333472.488938,0.497284,-0.302263,0.160301,0.455414,0.297682,-0.839037,0.000000,0.000000,0.000000,-1,-1.285581,4.733739,1.411739,0.326660,-0.059248,0.276812
"2018-06-07 01:04:32.499 +0000",1528333472.499011,0.556191,-0.311854,0.178400,0.502490,0.306824,-0.808308,0.000000,0.000000,0.000000,-1,-1.770405,5.551558,0.570847,-0.015155,0.001587,0.441411
"2018-06-07 01:04:32.509 +0000",1528333472.509085,0.620207,-0.332561,0.191683,0.549359,0.326465,-0.769172,0.000000,0.000000,0.000000,-1,-2.571604,6.184951,-0.218226,-0.856031,0.037945,0.577521
"2018-06-07 01:04:32.519 +0000",1528333472.519159,0.697318,-0.355532,0.210153,0.602004,0.348089,-0.718627,0.000000,0.000000,0.000000,-1,-2.924721,7.304641,0.080567,-0.111495,-0.086309,0.549132
"2018-06-07 01:04:32.529 +0000",1528333472.529233,0.784574,-0.373589,0.234151,0.657790,0.364959,-0.658876,0.000000,0.000000,0.000000,-1,-2.750340,7.908032,0.549828,0.177690,0.087342,0.130418
"2018-06-07 01:04:32.539 +0000",1528333472.539307,0.872806,-0.382413,0.259379,0.710795,0.373160,-0.596257,0.000000,0.000000,0.000000,-1,-2.145000,7.737370,1.072860,0.171224,0.094079,-0.110591
"2018-06-07 01:04:32.549 +0000",1528333472.549381,0.954212,-0.377948,0.284777,0.758278,0.369014,-0.537441,0.000000,0.000000,0.000000,-1,-1.395107,6.895763,2.003430,0.153480,-0.155498,-0.290775
"2018-06-07 01:04:32.559 +0000",1528333472.559455,1.022405,-0.363582,0.306431,0.797579,0.355625,-0.487236,0.000000,0.000000,0.000000,-1,-0.728505,5.620576,2.344552,0.130857,-0.041919,-0.461143
"2018-06-07 01:04:32.570 +0000",1528333472.569529,1.072299,-0.346137,0.323656,0.826210,0.339266,-0.449750,0.000000,0.000000,0.000000,-1,-0.502694,3.930902,2.281035,0.155143,0.338636,-0.507327
"2018-06-07 01:04:32.580 +0000",1528333472.579603,1.107318,-0.329653,0.341984,0.846338,0.323715,-0.422990,0.000000,0.000000,0.000000,-1,-0.919149,2.552190,2.245708,0.179647,0.445496,-0.293426
"2018-06-07 01:04:32.590 +0000",1528333472.589677,1.134736,-0.316820,0.368410,0.861311,0.311547,-0.401350,0.000000,0.000000,0.000000,-1,-1.897575,1.827600,2.135050,0.263582,0.348579,0.163893
"2018-06-07 01:04:32.600 +0000",1528333472.599751,1.159976,-0.310492,0.404148,0.872955,0.305528,-0.380265,0.000000,0.000000,0.000000,-1,-3.169526,1.184879,1.940326,0.151077,0.162627,0.460130
"2018-06-07 01:04:32.610 +0000",1528333472.609825,1.181554,-0.309447,0.451380,0.881252,0.304532,-0.361463,0.000000,0.000000,0.000000,-1,-4.316875,0.601605,1.788515,0.293721,-0.016843,0.753766
"2018-06-07 01:04:32.620 +0000",1528333472.619899,1.202611,-0.311269,0.502976,0.888148,0.306267,-0.342628,0.000000,0.000000,0.000000,-1,-4.623019,0.526942,1.588929,0.188665,-0.011650,0.482291
"2018-06-07 01:04:32.630 +0000",1528333472.629973,1.222959,-0.312341,0.551767,0.894627,0.307287,-0.324373,0.000000,0.000000,0.000000,-1,-4.221093,0.529539,1.497662,0.171459,0.026102,0.093813
"2018-06-07 01:04:32.640 +0000",1528333472.640047,1.241228,-0.310892,0.592398,0.900823,0.305908,-0.308120,0.000000,0.000000,0.000000,-1,-3.322089,0.605057,1.362443,0.156794,0.004029,-0.145539
"2018-06-07 01:04:32.650 +0000",1528333472.650120,1.256462,-0.308416,0.620995,0.906130,0.303550,-0.294595,0.000000,0.000000,0.000000,-1,-2.193373,0.627273,1.000657,0.057386,-0.030097,-0.258338
"2018-06-07 01:04:32.660 +0000",1528333472.660194,1.267631,-0.305508,0.636624,0.910202,0.300777,-0.284719,0.000000,0.000000,0.000000,-1,-1.060496,0.674741,0.641087,-0.043396,-0.143932,-0.479564
"2018-06-07 01:04:32.670 +0000",1528333472.670268,1.280225,-0.302100,0.644499,0.914692,0.297526,-0.273525,0.000000,0.000000,0.000000,-1,-0.524504,1.161873,0.539090,-0.014225,-0.271846,-0.306095
"2018-06-07 01:04:32.680 +0000",1528333472.680342,1.298328,-0.297921,0.653044,0.920683,0.293534,-0.257255,0.000000,0.000000,0.000000,-1,-0.766333,1.622890,0.651776,0.110032,-0.332123,0.077888
"2018-06-07 01:04:32.690 +0000",1528333472.690416,1.315444,-0.294470,0.665284,0.925926,0.290232,-0.241714,0.000000,0.000000,0.000000,-1,-1.092293,1.190716,0.614694,0.072288,-0.266795,0.077896
"2018-06-07 01:04:32.700 +0000",1528333472.700490,1.326462,-0.291572,0.677217,0.929345,0.287458,-0.231700,0.000000,0.000000,0.000000,-1,-0.967284,0.627100,0.545002,-0.030969,-0.208433,-0.226384
"2018-06-07 01:04:32.711 +0000",1528333472.710564,1.334275,-0.287655,0.685148,0.932215,0.283704,-0.224694,0.000000,0.000000,0.000000,-1,-0.514748,0.577748,0.571789,-0.048060,-0.213071,-0.401527
"2018-06-07 01:04:32.721 +0000",1528333472.720638,1.344197,-0.281466,0.688443,0.936091,0.277764,-0.215825,0.000000,0.000000,0.000000,-1,-0.060395,1.017533,0.711862,0.000859,-0.177330,-0.401882
"2018-06-07 01:04:32.731 +0000",1528333472.730712,1.357487,-0.273187,0.689140,0.941092,0.269801,-0.203845,0.000000,0.000000,0.000000,-1,0.147302,1.376548,0.839357,0.035257,-0.115245,-0.269162
"2018-06-07 01:04:32.741 +0000",1528333472.740786,1.372913,-0.265113,0.689718,0.946230,0.262018,-0.189726,0.000000,0.000000,0.000000,-1,0.081584,1.546855,0.759329,-0.029558,-0.026926,-0.088213
"2018-06-07 01:04:32.751 +0000",1528333472.750860,1.388652,-0.259927,0.690890,0.950422,0.257010,-0.175054,0.000000,0.000000,0.000000,-1,-0.039820,1.519344,0.432531,-0.233824,0.065408,0.003133
"2018-06-07 01:04:32.761 +0000",1528333472.760934,1.404125,-0.259237,0.691657,0.953191,0.256343,-0.160358,0.000000,0.000000,0.000000,-1,-0.056174,1.517969,-0.036417,-0.401663,0.063115,-0.003201
"2018-06-07 01:04:32.771 +0000",1528333472.771008,1.419743,-0.262168,0.691680,0.954833,0.259175,-0.145338,0.000000,0.000000,0.000000,-1,-0.054859,1.540132,-0.347217,-0.345366,-0.010106,0.045377
"2018-06-07 01:04:32.781 +0000",1528333472.781082,1.433424,-0.266324,0.692703,0.955656,0.263186,-0.132113,0.000000,0.000000,0.000000,-1,-0.202334,1.228133,-0.389737,-0.185240,-0.053546,0.059740
"2018-06-07 01:04:32.791 +0000",1528333472.791156,1.442083,-0.269966,0.695932,0.955808,0.266699,-0.123709,0.000000,0.000000,0.000000,-1,-0.393605,0.614668,-0.299653,-0.063962,-0.020452,0.064520
"2018-06-07 01:04:32.801 +0000",1528333472.801229,1.445108,-0.273507,0.699398,0.955234,0.270110,-0.120698,0.000000,0.000000,0.000000,-1,-0.338310,0.087988,-0.322825,-0.059910,-0.046050,-0.017288
"2018-06-07 01:04:32.811 +0000",1528333472.811303,1.443209,-0.278266,0.700502,0.953718,0.274689,-0.122347,0.000000,0.000000,0.000000,-1,-0.104364,-0.304671,-0.511665,-0.090299,-0.121368,-0.127866
"2018-06-07 01:04:32.821 +0000",1528333472.821377,1.438805,-0.285099,0.699506,0.951287,0.281252,-0.126295,0.000000,0.000000,0.000000,-1,0.030878,-0.412021,-0.739248,-0.081811,-0.195666,-0.101976
"2018-06-07 01:04:32.831 +0000",1528333472.831451,1.436821,-0.293463,0.698148,0.948670,0.289269,-0.127865,0.000000,0.000000,0.000000,-1,0.002035,-0.042750,-0.858580,-0.005875,-0.168847,0.017772
"2018-06-07 01:04:32.842 +0000",1528333472.841525,1.439329,-0.301663,0.697527,0.946604,0.297108,-0.125169,0.000000,0.000000,0.000000,-1,-0.062951,0.346480,-0.787382,0.097479,-0.088597,0.101030
"2018-06-07 01:04:32.852 +0000",1528333472.851599,1.442442,-0.308856,0.696833,0.944845,0.303969,-0.121945,0.000000,0.000000,0.000000,-1,-0.002620,0.290311,-0.703784,0.164896,-0.083052,0.104733
"2018-06-07 01:04:32.862 +0000",1528333472.861673,1.442010,-0.316707,0.694327,0.942396,0.311439,-0.122043,0.000000,0.000000,0.000000,-1,0.188004,-0.049889,-0.865481,0.104113,-0.071022,0.057956
"2018-06-07 01:04:32.872 +0000",1528333472.871747,1.438373,-0.328009,0.689304,0.938397,0.322159,-0.124997,0.000000,0.000000,0.000000,-1,0.360620,-0.244096,-1.298850,-0.091351,-0.006088,0.046048
"2018-06-07 01:04:32.882 +0000",1528333472.881821,1.433071,-0.345532,0.681340,0.931986,0.338698,-0.129176,0.000000,0.000000,0.000000,-1,0.557426,-0.252550,-2.032916,-0.326502,-0.098143,0.054591
"2018-06-07 01:04:32.892 +0000",1528333472.891895,1.427244,-0.371308,0.670380,0.922268,0.362835,-0.133311,0.000000,0.000000,0.000000,-1,0.670874,-0.193873,-2.862327,-0.604016,-0.251598,-0.030950
"2018-06-07 01:04:32.902 +0000",1528333472.901969,1.420236,-0.399220,0.658389,0.910941,0.388699,-0.138197,0.000000,0.000000,0.000000,-1,0.696992,-0.260876,-2.835691,-0.317878,-0.206189,-0.095903
"2018-06-07 01:04:32.912 +0000",1528333472.912043,1.408900,-0.420048,0.648362,0.901129,0.407804,-0.147178,0.000000,0.000000,0.000000,-1,0.498046,-0.985614,-1.869263,0.264413,-0.029096,0.020194
"2018-06-07 01:04:32.922 +0000",1528333472.922117,1.390764,-0.433059,0.638957,0.893016,0.419649,-0.162532,0.000000,0.000000,0.000000,-1,0.705037,-1.557853,-1.398118,0.466466,0.240248,0.343928
"2018-06-07 01:04:32.932 +0000",1528333472.932191,1.365294,-0.448414,0.625613,0.882174,0.433537,-0.183885,0.000000,0.000000,0.000000,-1,0.930703,-2.019616,-1.867883,-0.110156,0.185283,0.351396
"2018-06-07 01:04:32.942 +0000",1528333472.942265,1.344702,-0.467679,0.611185,0.869899,0.450815,-0.200101,0.000000,0.000000,0.000000,-1,0.771588,-1.094391,-2.188596,-0.155116,0.292349,0.496381
"2018-06-07 01:04:32.952 +0000",1528333472.952339,1.340021,-0.488171,0.601075,0.859777,0.469012,-0.202014,0.000000,0.000000,0.000000,-1,0.271210,0.324667,-2.172566,0.018137,0.255628,0.464099
"2018-06-07 01:04:32.962 +0000",1528333472.962412,1.348277,-0.508981,0.596520,0.851711,0.487287,-0.192713,0.000000,0.000000,0.000000,-1,-0.165210,1.214442,-2.076473,0.207417,-0.026625,0.270426
"2018-06-07 01:04:32.972 +0000",1528333472.972486,1.360586,-0.529514,0.593769,0.844054,0.505114,-0.180089,0.000000,0.000000,0.000000,-1,-0.179223,1.353696,-2.046993,0.201479,-0.078860,-0.034465
"2018-06-07 01:04:32.983 +0000",1528333472.982560,1.369115,-0.551216,0.588811,0.834621,0.523723,-0.170647,0.000000,0.000000,0.000000,-1,0.012803,1.000512,-2.252833,-0.019466,-0.024761,-0.266151
"2018-06-07 01:04:32.993 +0000",1528333472.992634,1.375323,-0.575026,0.581925,0.823196,0.543857,-0.162994,0.000000,0.000000,0.000000,-1,0.117509,1.005066,-2.484323,-0.129608,0.048871,-0.234086
"2018-06-07 01:04:33.003 +0000",1528333473.002708,1.382321,-0.599707,0.575171,0.810881,0.564401,-0.154667,0.000000,0.000000,0.000000,-1,0.062025,1.070912,-2.516274,-0.102843,0.162162,0.081181
"2018-06-07 01:04:33.013 +0000",1528333473.012782,1.388531,-0.625111,0.568608,0.797465,0.585187,-0.146982,0.000000,0.000000,0.000000,-1,0.078585,0.964858,-2.608050,-0.101634,-0.011915,0.192178
"2018-06-07 01:04:33.023 +0000",1528333473.022856,1.392397,-0.652022,0.559119,0.782243,0.606794,-0.141051,0.000000,0.000000,0.000000,-1,0.341914,0.948997,-2.839963,-0.185533,-0.114836,-0.025636
"2018-06-07 01:04:33.033 +0000",1528333473.032930,1.394991,-0.683342,0.544235,0.763513,0.631388,-0.135630,0.000000,0.000000,0.000000,-1,0.662000,1.274946,-3.392630,-0.354593,-0.104396,-0.148901
"2018-06-07 01:04:33.043 +0000",1528333473.043004,1.399696,-0.715693,0.528680,0.743619,0.656141,-0.128490,0.000000,0.000000,0.000000,-1,0.549764,1.486122,-3.301404,-0.134046,-0.049131,0.153712
"2018-06-07 01:04:33.053 +0000",1528333473.053078,1.406831,-0.745815,0.518753,0.724683,0.678570,-0.119899,0.000000,0.000000,0.000000,-1,0.126366,1.308002,-2.991167,0.182757,-0.065854,0.574413
"2018-06-07 01:04:33.063 +0000",1528333473.063152,1.410028,-0.771998,0.510465,0.707278,0.697568,-0.114698,0.000000,0.000000,0.000000,-1,0.247646,0.713785,-2.571520,0.328397,-0.201337,0.414472
"2018-06-07 01:04:33.073 +0000",1528333473.073226,1.404770,-0.795804,0.497988,0.690088,0.714427,-0.115637,0.000000,0.000000,0.000000,-1,0.522245,0.270499,-2.440059,0.262167,-0.281519,-0.035974
"2018-06-07 01:04:33.083 +0000",1528333473.083300,1.395946,-0.818344,0.484714,0.673010,0.730015,-0.118890,0.000000,0.000000,0.000000,-1,0.524927,-0.020810,-2.343029,0.090052,-0.220692,0.022531
"2018-06-07 01:04:33.093 +0000",1528333473.093374,1.379528,-0.838853,0.470041,0.656128,0.743877,-0.127049,0.000000,0.000000,0.000000,-1,0.623713,-0.780031,-2.119578,0.112396,-0.105434,0.030644
"2018-06-07 01:04:33.103 +0000",1528333473.103448,1.351006,-0.858450,0.452921,0.637887,0.756830,-0.142504,0.000000,0.000000,0.000000,-1,0.729279,-1.727886,-2.208671,0.100058,-0.089502,0.053957
"2018-06-07 01:04:33.114 +0000",1528333473.113521,1.317552,-0.881613,0.430126,0.615624,0.771766,-0.159324,0.000000,0.000000,0.000000,-1,0.929593,-1.573104,-2.599139,-0.225945,-0.095069,-0.177667
"2018-06-07 01:04:33.124 +0000",1528333473.123595,1.284679,-0.896765,0.410298,0.598767,0.781312,-0.176151,0.000000,0.000000,0.000000,-1,0.707198,-1.757185,-1.518142,0.493457,0.288238,-0.048443
"2018-06-07 01:04:33.134 +0000",1528333473.133669,1.260176,-0.909240,0.398433,0.584945,0.789037,-0.187774,0.000000,0.000000,0.000000,-1,0.222825,-1.394549,-1.404111,0.402192,0.133814,0.371276
"2018-06-07 01:04:33.144 +0000",1528333473.143743,1.242372,-0.920897,0.390478,0.572763,0.796145,-0.195178,0.000000,0.000000,0.000000,-1,0.076831,-1.099548,-1.167352,0.103460,0.020185,0.132617
"2018-06-07 01:04:33.154 +0000",1528333473.153817,1.225122,-0.929126,0.384515,0.563129,0.801097,-0.202802,0.000000,0.000000,0.000000,-1,0.058495,-1.292118,-0.807529,0.124340,0.168980,-0.047824
"2018-06-07 01:04:33.164 +0000",1528333473.163891,1.208433,-0.935313,0.380281,0.555021,0.804785,-0.210410,0.000000,0.000000,0.000000,-1,0.005618,-1.302920,-0.622428,-0.037275,0.163767,0.020973
"2018-06-07 01:04:33.174 +0000",1528333473.173965,1.195767,-0.940252,0.378431,0.548606,0.807706,-0.215965,0.000000,0.000000,0.000000,-1,-0.099998,-1.027323,-0.443903,-0.058265,0.234850,0.151115
"2018-06-07 01:04:33.184 +0000",1528333473.184039,1.188422,-0.942812,0.378588,0.545085,0.809213,-0.219216,0.000000,0.000000,0.000000,-1,-0.087874,-0.639886,-0.155607,0.093755,0.243704,0.151848
"2018-06-07 01:04:33.194 +0000",1528333473.194113,1.185564,-0.941818,0.379076,0.545202,0.808629,-0.221075,0.000000,0.000000,0.000000,-1,0.048756,-0.211727,0.190608,0.186091,0.209636,0.124228
"2018-06-07 01:04:33.204 +0000",1528333473.204187,1.187651,-0.936637,0.379554,0.549540,0.805570,-0.221500,0.000000,0.000000,0.000000,-1,0.202797,0.308498,0.583303,0.240774,0.165728,0.102100
"2018-06-07 01:04:33.214 +0000",1528333473.214261,1.195745,-0.927734,0.380341,0.557967,0.800263,-0.219664,0.000000,0.000000,0.000000,-1,0.306792,0.872719,0.922459,0.243120,0.138809,0.133238
"2018-06-07 01:04:33.224 +0000",1528333473.224335,1.207935,-0.916599,0.380806,0.568898,0.793537,-0.215996,0.000000,0.000000,0.000000,-1,0.396845,1.253370,1.048135,0.173564,0.152722,0.131676
"2018-06-07 01:04:33.234 +0000",1528333473.234409,1.220829,-0.905805,0.379367,0.579649,0.786922,-0.211567,0.000000,0.000000,0.000000,-1,0.476265,1.425283,0.943040,0.040361,0.197285,0.132344
"2018-06-07 01:04:33.244 +0000",1528333473.244483,1.235081,-0.896754,0.376969,0.589306,0.781305,-0.205623,0.000000,0.000000,0.000000,-1,0.406075,1.684969,0.750340,0.022296,0.150000,0.158946
"2018-06-07 01:04:33.255 +0000",1528333473.254557,1.254100,-0.888351,0.378052,0.599328,0.776033,-0.196416,0.000000,0.000000,0.000000,-1,0.134273,1.839732,0.837464,0.033866,0.052474,0.241032
"2018-06-07 01:04:33.265 +0000",1528333473.264630,1.276322,-0.880294,0.383965,0.609508,0.770926,-0.184859,0.000000,0.000000,0.000000,-1,-0.203025,1.680557,0.875421,-0.007106,-0.017737,0.102202
"2018-06-07 01:04:33.275 +0000",1528333473.274704,1.291322,-0.875797,0.391955,0.615539,0.768054,-0.176650,0.000000,0.000000,0.000000,-1,-0.384385,0.564425,0.420819,-0.169982,-0.067050,-0.155885
"2018-06-07 01:04:33.285 +0000",1528333473.284778,1.291540,-0.878477,0.396671,0.613596,0.769767,-0.175948,0.000000,0.000000,0.000000,-1,-0.340367,-0.630880,-0.376585,-0.313227,-0.256294,-0.204835
"2018-06-07 01:04:33.295 +0000",1528333473.294852,1.281293,-0.886634,0.398642,0.605723,0.774949,-0.180428,0.000000,0.000000,0.000000,-1,-0.402786,-1.238584,-0.790182,-0.200129,-0.212723,-0.096947
"2018-06-07 01:04:33.305 +0000",1528333473.304926,1.275991,-0.896404,0.407343,0.597484,0.781087,-0.181428,0.000000,0.000000,0.000000,-1,-0.945039,-1.163362,-0.762906,0.065617,0.021343,0.132615
"2018-06-07 01:04:33.315 +0000",1528333473.315000,1.276618,-0.908633,0.425323,0.588412,0.788664,-0.178270,0.000000,0.000000,0.000000,-1,-1.583508,-1.434682,-0.883781,0.140958,0.114168,0.088213
"2018-06-07 01:04:33.325 +0000",1528333473.325074,1.285587,-0.924118,0.453995,0.578198,0.798090,-0.169529,0.000000,0.000000,0.000000,-1,-2.242456,-1.260419,-0.991481,0.069462,0.031530,0.110173
"2018-06-07 01:04:33.335 +0000",1528333473.335148,1.305164,-0.940740,0.489873,0.568526,0.807994,-0.154674,0.000000,0.000000,0.000000,-1,-2.558760,-0.845111,-1.022894,0.134722,-0.096034,0.181575
"2018-06-07 01:04:33.345 +0000",1528333473.345222,1.331640,-0.958400,0.531644,0.558469,0.818273,-0.136167,0.000000,0.000000,0.000000,-1,-2.852216,-0.707189,-1.122931,0.165561,-0.079671,0.024549
"2018-06-07 01:04:33.355 +0000",1528333473.355296,1.367378,-0.977168,0.580057,0.547838,0.828917,-0.113004,0.000000,0.000000,0.000000,-1,-3.128957,-0.272717,-1.247959,0.105497,-0.017073,0.069638
"2018-06-07 01:04:33.365 +0000",1528333473.365370,1.414288,-0.995500,0.632087,0.537433,0.839031,-0.084806,0.000000,0.000000,0.000000,-1,-3.090733,0.581549,-1.270302,0.134335,0.006931,0.134077
"2018-06-07 01:04:33.375 +0000",1528333473.375444,1.466209,-1.010331,0.679874,0.528675,0.847008,-0.055495,0.000000,0.000000,0.000000,-1,-2.561512,1.283632,-1.064023,0.237988,-0.112267,0.053435
"2018-06-07 01:04:33.386 +0000",1528333473.385518,1.506068,-1.021129,0.717191,0.521309,0.852699,-0.033790,0.000000,0.000000,0.000000,-1,-1.864834,0.471294,-0.866836,0.158394,-0.173560,-0.146599
"2018-06-07 01:04:33.396 +0000",1528333473.395592,1.525458,-1.029767,0.742028,0.514489,0.857179,-0.023342,0.000000,0.000000,0.000000,-1,-1.139259,-0.256098,-0.750141,-0.089638,-0.055208,-0.070637
"2018-06-07 01:04:33.406 +0000",1528333473.405666,1.533803,-1.035584,0.753114,0.509674,0.860160,-0.018863,0.000000,0.000000,0.000000,-1,-0.407387,-0.056525,-0.473720,-0.047165,-0.054755,0.217975
"2018-06-07 01:04:33.416 +0000",1528333473.415740,1.533247,-1.037229,0.750951,0.508249,0.860998,-0.019094,0.000000,0.000000,0.000000,-1,0.265726,0.184081,-0.073346,0.072455,-0.153158,0.226659
"2018-06-07 01:04:33.426 +0000",1528333473.425813,1.524901,-1.036483,0.738131,0.508713,0.860619,-0.023364,0.000000,0.000000,0.000000,-1,0.759313,0.276004,0.061322,0.018936,-0.081123,0.163608
"2018-06-07 01:04:33.436 +0000",1528333473.435887,1.511782,-1.036136,0.719728,0.508661,0.860442,-0.030053,0.000000,0.000000,0.000000,-1,0.965011,0.280353,-0.054230,-0.044565,0.063554,0.125802
"2018-06-07 01:04:33.446 +0000",1528333473.445961,1.498567,-1.037369,0.700046,0.507161,0.861069,-0.036696,0.000000,0.000000,0.000000,-1,0.981979,0.401879,-0.227095,-0.075704,0.084106,0.179030
"2018-06-07 01:04:33.456 +0000",1528333473.456035,1.486497,-1.039481,0.680508,0.504869,0.862141,-0.042661,0.000000,0.000000,0.000000,-1,0.960305,0.508567,-0.290198,-0.058915,0.034160,0.139310
"2018-06-07 01:04:33.466 +0000",1528333473.466109,1.476189,-1.041217,0.661480,0.502912,0.863019,-0.047722,0.000000,0.000000,0.000000,-1,0.923031,0.626805,-0.238137,0.000339,-0.038892,0.102363
"2018-06-07 01:04:33.476 +0000",1528333473.476183,1.468085,-1.041845,0.644726,0.501968,0.863337,-0.051740,0.000000,0.000000,0.000000,-1,0.788646,0.625889,-0.108755,0.078705,-0.124506,0.061719
"2018-06-07 01:04:33.486 +0000",1528333473.486257,1.463924,-1.041420,0.631996,0.502113,0.863122,-0.053868,0.000000,0.000000,0.000000,-1,0.591353,0.703941,-0.003739,0.089989,-0.139444,0.056339
"2018-06-07 01:04:33.496 +0000",1528333473.496331,1.463742,-1.041024,0.622791,0.502444,0.862922,-0.053995,0.000000,0.000000,0.000000,-1,0.425499,0.785909,-0.026784,0.057767,-0.055045,0.092280
"2018-06-07 01:04:33.506 +0000",1528333473.506405,1.465379,-1.042150,0.615441,0.501564,0.863491,-0.053070,0.000000,0.000000,0.000000,-1,0.336506,0.787488,-0.200831,0.069374,0.020069,0.104965
"2018-06-07 01:04:33.516 +0000",1528333473.516479,1.467479,-1.044782,0.609712,0.499413,0.864815,-0.051782,0.000000,0.000000,0.000000,-1,0.220784,0.642658,-0.295644,0.051338,0.074089,0.070078
"2018-06-07 01:04:33.527 +0000",1528333473.526553,1.470190,-1.047198,0.607965,0.497471,0.866026,-0.050218,0.000000,0.000000,0.000000,-1,0.007291,0.351953,-0.223932,-0.022632,0.073092,-0.017668
"2018-06-07 01:04:33.537 +0000",1528333473.536627,1.473501,-1.048396,0.609733,0.496602,0.866624,-0.048470,0.000000,0.000000,0.000000,-1,-0.120730,0.124831,-0.074785,-0.078892,0.031508,-0.020317
"2018-06-07 01:04:33.547 +0000",1528333473.546701,1.475700,-1.048491,0.612419,0.496625,0.866671,-0.047370,0.000000,0.000000,0.000000,-1,-0.136002,-0.047960,0.020480,-0.106702,-0.016757,0.017600
"2018-06-07 01:04:33.557 +0000",1528333473.556775,1.477297,-1.048713,0.615162,0.496508,0.866782,-0.046559,0.000000,0.000000,0.000000,-1,-0.138786,-0.068636,-0.024751,-0.091479,-0.044517,0.083439
"2018-06-07 01:04:33.567 +0000",1528333473.566849,1.479390,-1.049723,0.617496,0.495733,0.867285,-0.045440,0.000000,0.000000,0.000000,-1,-0.110899,0.025116,-0.111670,-0.017477,-0.104437,0.157470
"2018-06-07 01:04:33.577 +0000",1528333473.576922,1.480035,-1.051255,0.617606,0.494438,0.868047,-0.044999,0.000000,0.000000,0.000000,-1,0.012278,0.071745,-0.154842,0.038994,-0.148031,0.132982
"2018-06-07 01:04:33.587 +0000",1528333473.586996,1.478902,-1.052860,0.615064,0.492999,0.868843,-0.045432,0.000000,0.000000,0.000000,-1,0.143740,0.102957,-0.180868,0.045209,-0.126564,0.124564
"2018-06-07 01:04:33.597 +0000",1528333473.597070,1.473370,-1.055010,0.608836,0.490880,0.869905,-0.047976,0.000000,0.000000,0.000000,-1,0.329380,-0.068540,-0.261389,0.037470,-0.118944,0.068850
"2018-06-07 01:04:33.607 +0000",1528333473.607144,1.461855,-1.057766,0.598815,0.487910,0.871261,-0.053365,0.000000,0.000000,0.000000,-1,0.496203,-0.341087,-0.341086,0.059804,-0.155350,-0.007609
"2018-06-07 01:04:33.617 +0000",1528333473.617218,1.445470,-1.061242,0.586066,0.483963,0.872962,-0.060973,0.000000,0.000000,0.000000,-1,0.597012,-0.580783,-0.445276,0.058731,-0.150092,0.014403
"2018-06-07 01:04:33.627 +0000",1528333473.627292,1.426167,-1.065548,0.571809,0.478971,0.875054,-0.069760,0.000000,0.000000,0.000000,-1,0.621896,-0.690151,-0.526325,0.068834,-0.093041,0.053540
"2018-06-07 01:04:33.637 +0000",1528333473.637366,1.409344,-1.068820,0.558513,0.474902,0.876633,-0.077347,0.000000,0.000000,0.000000,-1,0.560574,-0.437398,-0.368405,0.156217,-0.095689,0.144822
"2018-06-07 01:04:33.647 +0000",1528333473.647440,1.397849,-1.069705,0.547275,0.473216,0.877059,-0.082667,0.000000,0.000000,0.000000,-1,0.498388,-0.076383,-0.111209,0.192006,-0.088653,0.196895
"2018-06-07 01:04:33.658 +0000",1528333473.657514,1.390462,-1.068783,0.538710,0.473388,0.876616,-0.086306,0.000000,0.000000,0.000000,-1,0.385809,0.011591,0.039895,0.114960,-0.078566,0.160097
"2018-06-07 01:04:33.668 +0000",1528333473.667588,1.384424,-1.068340,0.533241,0.473240,0.876402,-0.089235,0.000000,0.000000,0.000000,-1,0.219452,-0.171942,-0.021569,0.032115,-0.011549,0.030809
"2018-06-07 01:04:33.678 +0000",1528333473.677662,1.476557,-1.017990,0.614273,0.522748,0.851054,-0.049410,0.000000,0.000000,0.000000,-1,0.107224,-0.243560,-0.033353,-0.027738,-0.003001,-0.031767
"2018-06-07 01:04:33.688 +0000",1528333473.687736,1.463631,-0.985821,0.604555,0.549011,0.833726,-0.059061,0.000000,0.000000,0.000000,-1,0.125486,-0.201025,0.045251,-0.047607,-0.067979,0.040751
"2018-06-07 01:04:33.698 +0000",1528333473.697810,1.460122,-0.984862,0.603209,0.549595,0.833196,-0.061076,0.000000,0.000000,0.000000,-1,0.053777,-0.256298,0.089356,-0.060871,-0.095891,0.067439
"2018-06-07 01:04:33.708 +0000",1528333473.707884,1.475368,-0.979856,0.618933,0.554607,0.830417,-0.053086,0.000000,0.000000,0.000000,-1,-0.089152,-0.344035,-0.025666,-0.085765,0.021420,0.052522
"2018-06-07 01:04:33.718 +0000",1528333473.717958,1.514765,-0.965111,0.655842,0.568432,0.822112,-0.031883,0.000000,0.000000,0.000000,-1,-0.173598,-0.460349,-0.093577,-0.092358,0.063279,0.039665
"2018-06-07 01:04:33.728 +0000",1528333473.728031,1.554138,-0.951119,0.695156,0.580692,0.814066,-0.009674,0.000000,0.000000,0.000000,-1,-0.262193,-0.791921,-0.141667,-0.071109,0.024527,-0.024902
"2018-06-07 01:04:33.738 +0000",1528333473.738105,1.573468,-0.950847,0.721451,0.580992,0.813908,0.001552,0.000000,0.000000,0.000000,-1,-0.429113,-1.075712,-0.117370,-0.050749,-0.004612,-0.065654
"2018-06-07 01:04:33.748 +0000",1528333473.748179,1.570472,-0.950581,0.732342,0.581211,0.813753,-0.000189,0.000000,0.000000,0.000000,-1,-0.700412,-1.200223,0.075430,-0.055317,-0.095980,-0.020258
"2018-06-07 01:04:33.758 +0000",1528333473.758253,1.569586,-0.949870,0.746821,0.581788,0.813340,-0.000704,0.000000,0.000000,0.000000,-1,-0.860870,-1.257651,0.050890,-0.101945,-0.006669,0.010393
"2018-06-07 01:04:33.768 +0000",1528333473.768327,1.569621,-0.950004,0.761103,0.581679,0.813418,-0.000684,0.000000,0.000000,0.000000,-1,-0.804709,-1.110048,-0.031634,-0.117400,0.120664,0.022397
"2018-06-07 01:04:33.778 +0000",1528333473.778401,1.569349,-0.950463,0.773968,0.581306,0.813684,-0.000841,0.000000,0.000000,0.000000,-1,-0.721624,-1.066922,-0.051060,-0.103508,0.059912,0.032931
"2018-06-07 01:04:33.788 +0000",1528333473.788475,1.567490,-0.951532,0.785714,0.580433,0.814305,-0.001919,0.000000,0.000000,0.000000,-1,-0.671587,-1.170759,-0.125696,-0.084568,0.050425,-0.013691
"2018-06-07 01:04:33.799 +0000",1528333473.798549,1.563344,-0.952876,0.797320,0.579325,0.815085,-0.004317,0.000000,0.000000,0.000000,-1,-0.663030,-1.414482,-0.115669,-0.060862,0.066476,-0.038270
"2018-06-07 01:04:33.809 +0000",1528333473.808623,1.556333,-0.953084,0.808021,0.579111,0.815206,-0.008376,0.000000,0.000000,0.000000,-1,-0.604006,-1.614677,0.019145,-0.042459,-0.016149,-0.113648
"2018-06-07 01:04:33.819 +0000",1528333473.818697,1.547877,-0.951553,0.817102,0.580266,0.814318,-0.013302,0.000000,0.000000,0.000000,-1,-0.485712,-1.529466,0.196604,-0.059575,-0.055132,-0.043415
"2018-06-07 01:04:33.829 +0000",1528333473.828771,1.540640,-0.949521,0.823974,0.581808,0.813137,-0.017551,0.000000,0.000000,0.000000,-1,-0.365306,-1.183363,0.203789,-0.083089,-0.045513,0.140948
"2018-06-07 01:04:33.839 +0000",1528333473.838845,1.535538,-0.948175,0.831643,0.582804,0.812352,-0.020557,0.000000,0.000000,0.000000,-1,-0.497152,-1.152705,0.135338,-0.096735,-0.045675,0.157749
"2018-06-07 01:04:33.849 +0000",1528333473.848919,1.531812,-0.947017,0.844102,0.583662,0.811677,-0.022765,0.000000,0.000000,0.000000,-1,-0.779453,-1.455403,0.141558,-0.102339,-0.112611,0.070876
"2018-06-07 01:04:33.859 +0000",1528333473.858993,1.529421,-0.945902,0.860547,0.584511,0.811025,-0.024198,0.000000,0.000000,0.000000,-1,-1.002091,-1.579018,0.152465,-0.150444,-0.255315,0.083387
"2018-06-07 01:04:33.869 +0000",1528333473.869067,1.526519,-0.946878,0.875658,0.583646,0.811596,-0.025859,0.000000,0.000000,0.000000,-1,-0.793735,-1.443082,-0.188596,-0.249342,-0.389034,0.154567
"2018-06-07 01:04:33.879 +0000",1528333473.879141,1.516145,-0.955956,0.879142,0.575966,0.816866,-0.031508,0.000000,0.000000,0.000000,-1,-0.053278,-1.315112,-1.158000,-0.360451,-0.175905,-0.101640
"2018-06-07 01:04:33.889 +0000",1528333473.889214,1.489105,-0.978808,0.864657,0.556151,0.829833,-0.045534,0.000000,0.000000,0.000000,-1,0.945741,-1.612910,-2.782151,-0.385038,-0.271101,-0.087828
"2018-06-07 01:04:33.899 +0000",1528333473.899288,1.443528,-1.007783,0.829409,0.529419,0.845651,-0.067744,0.000000,0.000000,0.000000,-1,1.711419,-1.557497,-2.923577,-0.031265,0.969169,-0.419179
"2018-06-07 01:04:33.909 +0000",1528333473.909362,1.398645,-1.023844,0.794061,0.512398,0.854113,-0.089092,0.000000,0.000000,0.000000,-1,1.525016,-1.472853,-1.501977,0.623237,-0.085940,-0.321416
"2018-06-07 01:04:33.919 +0000",1528333473.919436,1.356925,-1.031673,0.765411,0.501686,0.858159,-0.108963,0.000000,0.000000,0.000000,-1,1.225163,-1.828250,-0.981712,0.233452,0.121165,-0.005448
"2018-06-07 01:04:33.930 +0000",1528333473.929510,1.310992,-1.038701,0.738696,0.490313,0.861746,-0.130331,0.000000,0.000000,0.000000,-1,1.154621,-2.414478,-1.024131,-0.156802,0.332377,0.102103
"2018-06-07 01:04:33.940 +0000",1528333473.939584,1.259082,-1.047216,0.710871,0.475888,0.866035,-0.153340,0.000000,0.000000,0.000000,-1,1.051831,-2.880334,-1.258665,-0.415143,0.311227,0.136906
"2018-06-07 01:04:33.950 +0000",1528333473.949658,1.206568,-1.057270,0.686294,0.459024,0.871018,-0.174997,0.000000,0.000000,0.000000,-1,0.712506,-3.168506,-1.351232,-0.525949,0.259063,0.181681
"2018-06-07 01:04:33.960 +0000",1528333473.959732,1.155490,-1.072192,0.662738,0.437549,0.878251,-0.192939,0.000000,0.000000,0.000000,-1,0.367388,-2.997788,-1.977046,-0.583316,0.286880,0.049110
"2018-06-07 01:04:33.970 +0000",1528333473.969806,1.114840,-1.088397,0.646577,0.416513,0.885885,-0.204267,0.000000,0.000000,0.000000,-1,-0.088433,-2.414248,-1.641930,-0.277719,-0.047963,0.102384
"2018-06-07 01:04:33.980 +0000",1528333473.979880,1.094199,-1.101565,0.644318,0.401808,0.891916,-0.207451,0.000000,0.000000,0.000000,-1,-0.639690,-1.705732,-1.067439,0.083650,-0.163248,0.283256
"2018-06-07 01:04:33.990 +0000",1528333473.989954,1.090144,-1.111245,0.655178,0.393288,0.896252,-0.205077,0.000000,0.000000,0.000000,-1,-0.929142,-1.307170,-0.490147,0.293891,-0.228359,0.128249
"2018-06-07 01:04:34.000 +0000",1528333474.000028,1.091971,-1.118250,0.671145,0.388081,0.899336,-0.201460,0.000000,0.000000,0.000000,-1,-0.909788,-1.228938,-0.284516,0.158351,-0.363356,-0.072847
"2018-06-07 01:04:34.010 +0000",1528333474.010102,1.091392,-1.126307,0.684079,0.381522,0.902830,-0.198336,0.000000,0.000000,0.000000,-1,-0.902122,-1.187534,-0.467272,-0.107032,-0.286589,-0.013456
"2018-06-07 01:04:34.020 +0000",1528333474.020176,1.097973,-1.137059,0.704467,0.374155,0.907402,-0.191389,0.000000,0.000000,0.000000,-1,-1.437712,-1.308125,-0.599777,-0.106912,-0.385521,0.262495
"2018-06-07 01:04:34.030 +0000",1528333474.030249,1.112139,-1.149481,0.734639,0.366694,0.912552,-0.181065,0.000000,0.000000,0.000000,-1,-1.628658,-1.148754,-0.510673,-0.134562,-0.249878,0.330647
"2018-06-07 01:04:34.040 +0000",1528333474.040323,1.132839,-1.159871,0.762670,0.361756,0.916752,-0.169406,0.000000,0.000000,0.000000,-1,-1.420226,-0.336296,-0.397995,-0.120194,0.051769,0.225131
"2018-06-07 01:04:34.050 +0000",1528333474.050397,1.152878,-1.163754,0.787525,0.361822,0.918296,-0.160677,0.000000,0.000000,0.000000,-1,-0.868552,-0.285869,0.247351,0.074870,-0.066169,0.066866
"2018-06-07 01:04:34.060 +0000",1528333474.060471,1.161863,-1.157117,0.799824,0.368834,0.915648,-0.159839,0.000000,0.000000,0.000000,-1,0.029902,-0.206403,1.003854,0.180497,-0.063231,-0.030361
"2018-06-07 01:04:34.071 +0000",1528333474.070545,1.168577,-1.140330,0.807536,0.383991,0.908771,-0.163355,0.000000,0.000000,0.000000,-1,0.430565,0.067746,1.864250,0.297741,-0.216724,0.060983
"2018-06-07 01:04:34.081 +0000",1528333474.080619,1.183101,-1.117536,0.817612,0.405398,0.899024,-0.165550,0.000000,0.000000,0.000000,-1,0.453708,0.683903,2.330668,0.214353,-0.200385,0.190574
"2018-06-07 01:04:34.091 +0000",1528333474.090693,1.208998,-1.094008,0.835146,0.429217,0.888473,-0.162440,0.000000,0.000000,0.000000,-1,0.008798,1.101321,2.496399,0.121473,-0.050354,0.166499
"2018-06-07 01:04:34.101 +0000",1528333474.100767,1.239890,-1.070140,0.854540,0.453959,0.877268,-0.155952,0.000000,0.000000,0.000000,-1,-0.003400,1.466682,2.535138,0.034002,0.107763,-0.037056
"2018-06-07 01:04:34.111 +0000",1528333474.110841,1.265783,-1.045008,0.864164,0.478728,0.864929,-0.150722,0.000000,0.000000,0.000000,-1,0.460603,1.787455,2.527478,0.019029,0.212220,-0.255834
"2018-06-07 01:04:34.121 +0000",1528333474.120915,1.284569,-1.017611,0.864013,0.504024,0.850855,-0.148339,0.000000,0.000000,0.000000,-1,0.953473,1.901525,2.615960,0.140950,0.318410,-0.415947
"2018-06-07 01:04:34.131 +0000",1528333474.130989,1.311766,-0.991844,0.869497,0.528893,0.837036,-0.140148,0.000000,0.000000,0.000000,-1,0.930346,1.895958,2.619223,0.164558,0.456024,-0.370320
"2018-06-07 01:04:34.141 +0000",1528333474.141063,1.325995,-0.965337,0.863914,0.552170,0.822241,-0.137938,0.000000,0.000000,0.000000,-1,0.962517,1.851949,2.401741,-0.052430,0.551264,-0.155992
"2018-06-07 01:04:34.151 +0000",1528333474.151137,1.335981,-0.941459,0.859118,0.572456,0.808418,-0.136948,0.000000,0.000000,0.000000,-1,0.761033,1.183745,2.187281,-0.126228,0.506722,-0.064392
"2018-06-07 01:04:34.161 +0000",1528333474.161211,1.344330,-0.920354,0.859440,0.590077,0.795816,-0.135965,0.000000,0.000000,0.000000,-1,0.332424,0.711374,1.981441,-0.073368,0.354743,0.095269
"2018-06-07 01:04:34.171 +0000",1528333474.171284,1.357163,-0.903841,0.867089,0.604534,0.785709,-0.131150,0.000000,0.000000,0.000000,-1,-0.233909,0.683949,1.600804,-0.166241,0.370419,0.306352
"2018-06-07 01:04:34.181 +0000",1528333474.181358,1.373486,-0.893129,0.880068,0.614812,0.779037,-0.122908,0.000000,0.000000,0.000000,-1,-0.658158,0.573079,1.056101,-0.324346,0.356079,0.272154
"2018-06-07 01:04:34.191 +0000",1528333474.191432,1.388546,-0.887905,0.893384,0.620587,0.775752,-0.114371,0.000000,0.000000,0.000000,-1,-0.700389,0.434547,0.554544,-0.430936,0.316625,-0.002175
"2018-06-07 01:04:34.202 +0000",1528333474.201506,1.398081,-0.885987,0.901734,0.623114,0.774540,-0.108705,0.000000,0.000000,0.000000,-1,-0.391732,0.258018,0.184377,-0.451072,0.229458,-0.281600
"2018-06-07 01:04:34.212 +0000",1528333474.211580,1.400430,-0.886895,0.903336,0.622675,0.775114,-0.107121,0.000000,0.000000,0.000000,-1,-0.033002,0.070458,-0.139683,-0.436625,0.174410,-0.399455
"2018-06-07 01:04:34.222 +0000",1528333474.221654,1.400073,-0.888898,0.901333,0.621105,0.776378,-0.107079,0.000000,0.000000,0.000000,-1,0.112566,0.155774,-0.231198,-0.228634,0.024144,-0.235465
"2018-06-07 01:04:34.232 +0000",1528333474.231728,1.400754,-0.891633,0.899262,0.619083,0.778099,-0.106297,0.000000,0.000000,0.000000,-1,0.057413,0.237179,-0.308282,-0.082065,0.029579,-0.024425
"2018-06-07 01:04:34.242 +0000",1528333474.241802,1.403004,-0.894492,0.898768,0.617125,0.779891,-0.104532,0.000000,0.000000,0.000000,-1,-0.038556,0.269650,-0.261715,0.042940,0.012620,0.024835
"2018-06-07 01:04:34.252 +0000",1528333474.251876,1.412872,-0.897951,0.904804,0.615458,0.782052,-0.098012,0.000000,0.000000,0.000000,-1,-0.081360,0.232854,-0.154159,0.066717,0.069190,0.012685
"2018-06-07 01:04:34.262 +0000",1528333474.261950,1.414646,-0.899081,0.905673,0.614758,0.782755,-0.096783,0.000000,0.000000,0.000000,-1,-0.064906,0.059170,-0.086936,-0.031307,0.164770,-0.034366
"2018-06-07 01:04:34.272 +0000",1528333474.272024,1.415014,-0.899925,0.906782,0.614140,0.783280,-0.096454,0.000000,0.000000,0.000000,-1,-0.096366,-0.078182,-0.076508,-0.146138,0.168990,-0.043363
"2018-06-07 01:04:34.282 +0000",1528333474.282098,1.415937,-0.901118,0.909397,0.613305,0.784021,-0.095743,0.000000,0.000000,0.000000,-1,-0.208600,-0.117951,-0.091425,-0.190301,0.116995,0.001687
"2018-06-07 01:04:34.292 +0000",1528333474.292172,1.425296,-0.903304,0.919587,0.612477,0.785377,-0.089750,0.000000,0.000000,0.000000,-1,-0.376427,-0.080426,0.011255,-0.164296,-0.006339,0.022977
"2018-06-07 01:04:34.302 +0000",1528333474.302246,1.432303,-0.903711,0.927898,0.612775,0.785628,-0.085412,0.000000,0.000000,0.000000,-1,-0.547920,0.102363,0.026162,-0.190320,-0.080184,0.051903
"2018-06-07 01:04:34.312 +0000",1528333474.312320,1.442453,-0.904148,0.937415,0.613269,0.785898,-0.079144,0.000000,0.000000,0.000000,-1,-0.589214,0.306359,0.044061,-0.158298,-0.082941,0.023098
"2018-06-07 01:04:34.322 +0000",1528333474.322393,1.453669,-0.904295,0.946879,0.614003,0.785990,-0.072247,0.000000,0.000000,0.000000,-1,-0.570433,0.385423,0.050702,-0.079915,-0.087564,-0.019427
"2018-06-07 01:04:34.332 +0000",1528333474.332467,1.471371,-0.905703,0.961179,0.614084,0.786859,-0.061257,0.000000,0.000000,0.000000,-1,-0.608359,0.450058,0.057430,-0.044382,-0.048578,0.007607
"2018-06-07 01:04:34.343 +0000",1528333474.342541,1.484868,-0.905613,0.971891,0.614925,0.786804,-0.052970,0.000000,0.000000,0.000000,-1,-0.675707,0.503619,0.067421,-0.044918,0.012162,0.027823
"2018-06-07 01:04:34.353 +0000",1528333474.352615,1.499837,-0.905360,0.985135,0.615848,0.786648,-0.043774,0.000000,0.000000,0.000000,-1,-0.853503,0.440362,0.112821,-0.070483,0.004887,0.055660
"2018-06-07 01:04:34.363 +0000",1528333474.362689,1.517347,-0.903895,1.001576,0.617670,0.785742,-0.033046,0.000000,0.000000,0.000000,-1,-1.053997,0.450280,0.232706,-0.047984,-0.070288,0.102977
"2018-06-07 01:04:34.373 +0000",1528333474.372763,1.542506,-0.902500,1.025299,0.619401,0.784878,-0.017528,0.000000,0.000000,0.000000,-1,-1.221434,0.426513,0.292181,-0.059861,-0.042706,0.110942
"2018-06-07 01:04:34.383 +0000",1528333474.382837,1.563701,-0.898730,1.047038,0.622588,0.782537,-0.004418,0.000000,0.000000,0.000000,-1,-1.365332,0.410162,0.431221,-0.047240,-0.046621,0.071678
"2018-06-07 01:04:34.393 +0000",1528333474.392911,1.585426,-0.894352,1.069915,0.625956,0.779804,0.009158,0.000000,0.000000,0.000000,-1,-1.436645,0.363893,0.422644,-0.099742,0.047543,0.044095
"2018-06-07 01:04:34.403 +0000",1528333474.402985,1.606424,-0.889605,1.092675,0.629319,0.776823,0.022431,0.000000,0.000000,0.000000,-1,-1.418841,0.324374,0.434321,-0.017868,0.034502,-0.018708
"2018-06-07 01:04:34.413 +0000",1528333474.413059,1.630530,-0.885029,1.117438,0.632137,0.773933,0.037805,0.000000,0.000000,0.000000,-1,-1.292741,0.281922,0.431757,0.074070,0.020134,-0.078286
"2018-06-07 01:04:34.423 +0000",1528333474.423133,1.647510,-0.879619,1.136543,0.635569,0.770496,0.048853,0.000000,0.000000,0.000000,-1,-1.231948,0.191958,0.459323,0.144750,-0.069538,-0.117563
"2018-06-07 01:04:34.433 +0000",1528333474.433207,1.663820,-0.873130,1.155543,0.639653,0.766344,0.059675,0.000000,0.000000,0.000000,-1,-1.273794,0.172689,0.576608,0.132930,-0.050829,-0.088194
"2018-06-07 01:04:34.443 +0000",1528333474.443281,1.681315,-0.865461,1.174928,0.644333,0.761394,0.071502,0.000000,0.000000,0.000000,-1,-1.324808,0.311709,0.637366,0.022567,0.062870,-0.045456
"2018-06-07 01:04:34.453 +0000",1528333474.453355,1.704550,-0.857548,1.197346,0.648449,0.756241,0.087253,0.000000,0.000000,0.000000,-1,-1.314321,0.447924,0.622679,-0.138561,0.145828,-0.095172
"2018-06-07 01:04:34.463 +0000",1528333474.463428,1.722124,-0.850081,1.214867,0.652380,0.751334,0.099484,0.000000,0.000000,0.000000,-1,-1.203492,0.408988,0.556697,-0.212576,0.191018,-0.192578
"2018-06-07 01:04:34.474 +0000",1528333474.473502,1.735876,-0.843598,1.228670,0.655741,0.747040,0.109244,0.000000,0.000000,0.000000,-1,-0.911803,0.317946,0.470789,-0.195307,0.293304,-0.303183
"2018-06-07 01:04:34.484 +0000",1528333474.483576,1.743878,-0.838703,1.236449,0.658440,0.743777,0.115116,0.000000,0.000000,0.000000,-1,-0.487468,0.179112,0.351092,-0.152184,0.294950,-0.410984
"2018-06-07 01:04:34.494 +0000",1528333474.493650,1.751160,-0.835641,1.242175,0.659822,0.741727,0.120315,0.000000,0.000000,0.000000,-1,-0.200715,0.154129,0.215907,-0.079652,0.221561,-0.386596
"2018-06-07 01:04:34.504 +0000",1528333474.503724,1.753197,-0.833846,1.242395,0.660884,0.740522,0.121901,0.000000,0.000000,0.000000,-1,-0.007026,0.203227,0.154295,-0.080714,0.222766,-0.388182
"2018-06-07 01:04:34.514 +0000",1528333474.513798,1.755668,-0.832921,1.241274,0.661254,0.739899,0.123659,0.000000,0.000000,0.000000,-1,0.070967,0.370538,0.098669,0.019426,0.203124,-0.178774
"2018-06-07 01:04:34.524 +0000",1528333474.523872,1.759033,-0.831576,1.239447,0.661810,0.738994,0.126069,0.000000,0.000000,0.000000,-1,0.102750,0.499806,0.183948,0.032739,0.159214,-0.108247
"2018-06-07 01:04:34.534 +0000",1528333474.533946,1.765261,-0.829322,1.238850,0.662645,0.737474,0.130510,0.000000,0.000000,0.000000,-1,0.161365,0.515235,0.208599,-0.045747,0.131926,-0.116091
"2018-06-07 01:04:34.544 +0000",1528333474.544020,1.765334,-0.828641,1.234375,0.663128,0.737014,0.130656,0.000000,0.000000,0.000000,-1,0.328303,0.285585,0.108589,-0.010098,0.177522,-0.202235
"2018-06-07 01:04:34.554 +0000",1528333474.554094,1.763290,-0.827631,1.227139,0.664124,0.736331,0.129442,0.000000,0.000000,0.000000,-1,0.486974,0.353589,0.227820,0.150772,0.157926,-0.162997
"2018-06-07 01:04:34.564 +0000",1528333474.564168,1.759880,-0.825812,1.218009,0.665876,0.735099,0.127428,0.000000,0.000000,0.000000,-1,0.591499,0.292095,0.301621,0.160754,0.153131,-0.115466
"2018-06-07 01:04:34.574 +0000",1528333474.574242,1.757004,-0.823322,1.209607,0.668037,0.733408,0.125852,0.000000,0.000000,0.000000,-1,0.649867,0.196456,0.372202,0.063668,0.211889,-0.137524
"2018-06-07 01:04:34.584 +0000",1528333474.584316,1.752002,-0.819841,1.198539,0.671165,0.731037,0.122968,0.000000,0.000000,0.000000,-1,0.681059,0.390202,0.526511,-0.074271,0.241665,-0.079068
"2018-06-07 01:04:34.594 +0000",1528333474.594390,1.747435,-0.814170,1.185601,0.675790,0.727156,0.120628,0.000000,0.000000,0.000000,-1,0.794900,0.436822,0.741515,-0.078897,0.245546,-0.076728
"2018-06-07 01:04:34.604 +0000",1528333474.604463,1.741604,-0.808514,1.171704,0.680524,0.723262,0.117383,0.000000,0.000000,0.000000,-1,0.850877,0.451425,0.699480,-0.273145,0.260472,-0.143658
"2018-06-07 01:04:34.615 +0000",1528333474.614537,1.738636,-0.803934,1.159899,0.684128,0.720091,0.115914,0.000000,0.000000,0.000000,-1,0.821828,0.401590,0.521920,-0.258210,0.304124,-0.066598
"2018-06-07 01:04:34.625 +0000",1528333474.624611,1.731379,-0.803742,1.148741,0.685088,0.719958,0.110969,0.000000,0.000000,0.000000,-1,0.729534,-0.034538,0.011007,-0.193434,0.427930,-0.089103
"2018-06-07 01:04:34.635 +0000",1528333474.634685,1.722772,-0.807785,1.140418,0.683135,0.722758,0.104626,0.000000,0.000000,0.000000,-1,0.579541,-0.312102,-0.391749,-0.088057,0.305150,-0.015088
"2018-06-07 01:04:34.645 +0000",1528333474.644759,1.717452,-0.813022,1.136571,0.679928,0.726368,0.100436,0.000000,0.000000,0.000000,-1,0.242835,-0.187581,-0.465910,0.037647,-0.006336,0.159696
"2018-06-07 01:04:34.655 +0000",1528333474.654833,1.722124,-0.815638,1.137506,0.677571,0.728163,0.103325,0.000000,0.000000,0.000000,-1,0.042472,0.439628,-0.165673,0.107570,-0.344740,0.304466
"2018-06-07 01:04:34.665 +0000",1528333474.664907,1.727183,-0.814913,1.137643,0.677560,0.727666,0.106834,0.000000,0.000000,0.000000,-1,-0.016610,0.439272,0.142095,0.205801,-0.470037,0.153588
"2018-06-07 01:04:34.675 +0000",1528333474.674981,1.727280,-0.811801,1.135779,0.679783,0.725528,0.107252,0.000000,0.000000,0.000000,-1,0.115186,0.062037,0.396700,0.248851,-0.396747,-0.065824
"2018-06-07 01:04:34.685 +0000",1528333474.685055,1.731969,-0.808522,1.136725,0.681618,0.723267,0.110819,0.000000,0.000000,0.000000,-1,-0.311034,0.621696,0.162662,0.134575,-0.334382,0.032400
"2018-06-07 01:04:34.695 +0000",1528333474.695129,1.749882,-0.808868,1.146804,0.679277,0.723506,0.122966,0.000000,0.000000,0.000000,-1,-0.588069,0.973678,-0.187416,0.117125,-0.135784,0.266667
"2018-06-07 01:04:34.705 +0000",1528333474.705203,1.761165,-0.808857,1.153502,0.677854,0.723499,0.130624,0.000000,0.000000,0.000000,-1,-0.385072,0.475178,-0.025833,0.347933,-0.272876,-0.033898
"2018-06-07 01:04:34.715 +0000",1528333474.715277,1.761612,-0.807456,1.155522,0.678790,0.722531,0.131119,0.000000,0.000000,0.000000,-1,-0.093563,-0.272244,0.129445,0.436688,-0.362759,-0.284821
"2018-06-07 01:04:34.725 +0000",1528333474.725351,1.757155,-0.806833,1.155124,0.679810,0.722100,0.128176,0.000000,0.000000,0.000000,-1,0.028026,-0.396680,0.040602,0.369598,-0.233956,-0.246996
"2018-06-07 01:04:34.735 +0000",1528333474.735425,1.758415,-0.805386,1.156195,0.680674,0.721098,0.129227,0.000000,0.000000,0.000000,-1,-0.020763,0.074638,0.180843,0.292272,-0.155791,-0.012528
"2018-06-07 01:04:34.745 +0000",1528333474.745498,1.761679,-0.802265,1.157076,0.682455,0.718932,0.131875,0.000000,0.000000,0.000000,-1,-0.149092,0.284487,0.316203,0.245584,-0.095092,-0.003106
"2018-06-07 01:04:34.756 +0000",1528333474.755572,1.765159,-0.798820,1.158918,0.684418,0.716533,0.134726,0.000000,0.000000,0.000000,-1,-0.188807,0.182339,0.303089,0.121108,0.075840,-0.115576
"2018-06-07 01:04:34.766 +0000",1528333474.765646,1.766609,-0.795687,1.160540,0.686421,0.714345,0.136155,0.000000,0.000000,0.000000,-1,-0.155770,-0.018306,0.265858,-0.032978,0.162837,-0.141114
"2018-06-07 01:04:34.776 +0000",1528333474.775720,1.767669,-0.793502,1.162711,0.687805,0.712814,0.137187,0.000000,0.000000,0.000000,-1,-0.081286,-0.164752,0.158772,-0.174805,0.160843,-0.143886
"2018-06-07 01:04:34.786 +0000",1528333474.785794,1.766470,-0.792300,1.162848,0.688809,0.711970,0.136529,0.000000,0.000000,0.000000,-1,-0.025318,-0.089745,0.110458,-0.250989,-0.001032,-0.086327
"2018-06-07 01:04:34.796 +0000",1528333474.795868,1.767352,-0.791168,1.162786,0.689478,0.711175,0.137294,0.000000,0.000000,0.000000,-1,-0.018194,0.145195,0.111125,-0.195322,0.010901,-0.025599
"2018-06-07 01:04:34.806 +0000",1528333474.805942,1.769707,-0.790179,1.163023,0.689842,0.710479,0.139056,0.000000,0.000000,0.000000,-1,-0.039053,0.223199,0.082358,-0.102150,0.101380,-0.041995
"2018-06-07 01:04:34.816 +0000",1528333474.816016,1.773603,-0.789567,1.164546,0.689721,0.710048,0.141830,0.000000,0.000000,0.000000,-1,-0.036530,0.195978,0.030642,-0.075677,0.101124,-0.082778
"2018-06-07 01:04:34.826 +0000",1528333474.826090,1.776047,-0.789512,1.164808,0.689411,0.710010,0.143523,0.000000,0.000000,0.000000,-1,-0.011097,0.245597,-0.004768,-0.069400,0.069913,-0.076201
"2018-06-07 01:04:34.836 +0000",1528333474.836164,1.779376,-0.789631,1.164883,0.688846,0.710093,0.145800,0.000000,0.000000,0.000000,-1,-0.002704,0.349957,-0.016316,-0.058414,0.042150,-0.047381
"2018-06-07 01:04:34.846 +0000",1528333474.846238,1.783741,-0.789856,1.165076,0.688047,0.710252,0.148772,0.000000,0.000000,0.000000,-1,-0.010055,0.442198,-0.027863,-0.061155,0.035262,-0.032103
"2018-06-07 01:04:34.856 +0000",1528333474.856312,1.790145,-0.790127,1.166406,0.686893,0.710443,0.153133,0.000000,0.000000,0.000000,-1,-0.016282,0.475172,-0.041736,-0.064136,0.033942,-0.045101
"2018-06-07 01:04:34.866 +0000",1528333474.866386,1.795398,-0.790578,1.166766,0.685766,0.710760,0.156668,0.000000,0.000000,0.000000,-1,-0.010967,0.503778,-0.053497,-0.070334,0.021692,-0.059622
"2018-06-07 01:04:34.876 +0000",1528333474.876459,1.801068,-0.791227,1.166885,0.684418,0.711217,0.160448,0.000000,0.000000,0.000000,-1,0.012184,0.569766,-0.067342,-0.073044,0.015270,-0.064165
"2018-06-07 01:04:34.887 +0000",1528333474.886533,1.807216,-0.792027,1.166829,0.682865,0.711779,0.164519,0.000000,0.000000,0.000000,-1,0.025882,0.626942,-0.080115,-0.073963,0.007414,-0.074294
"2018-06-07 01:04:34.897 +0000",1528333474.896607,1.814952,-0.793008,1.167458,0.680894,0.712467,0.169628,0.000000,0.000000,0.000000,-1,0.046982,0.667690,-0.097255,-0.082490,0.001369,-0.088650
"2018-06-07 01:04:34.907 +0000",1528333474.906681,1.812056,-0.814022,1.160035,0.666695,0.727055,0.164042,0.000000,0.000000,0.000000,-1,0.080706,0.696402,-0.115534,-0.073769,-0.024174,-0.103587
"2018-06-07 01:04:34.917 +0000",1528333474.916755,1.813129,-0.822087,1.155151,0.660804,0.732568,0.163345,0.000000,0.000000,0.000000,-1,0.108263,0.713090,-0.149970,-0.065498,-0.037988,-0.125274
"2018-06-07 01:04:34.927 +0000",1528333474.926829,1.816741,-0.827752,1.151859,0.656174,0.736412,0.164717,0.000000,0.000000,0.000000,-1,0.129533,0.739653,-0.187589,-0.046647,-0.045342,-0.125044
"2018-06-07 01:04:34.937 +0000",1528333474.936903,1.819941,-0.833068,1.147838,0.651841,0.739999,0.165848,0.000000,0.000000,0.000000,-1,0.166461,0.773894,-0.213389,-0.011048,-0.055535,-0.134049
"2018-06-07 01:04:34.947 +0000",1528333474.946977,1.821220,-0.838217,1.142261,0.647928,0.743452,0.165735,0.000000,0.000000,0.000000,-1,0.198021,0.731174,-0.214661,0.044119,-0.069349,-0.163065
"2018-06-07 01:04:34.957 +0000",1528333474.957051,1.820861,-0.842940,1.136274,0.644579,0.746602,0.164632,0.000000,0.000000,0.000000,-1,0.189707,0.613678,-0.211757,0.110014,-0.095830,-0.177587
"2018-06-07 01:04:34.967 +0000",1528333474.967125,1.819956,-0.847013,1.130247,0.641774,0.749306,0.163298,0.000000,0.000000,0.000000,-1,0.177212,0.595030,-0.223615,0.163447,-0.118996,-0.158751
"2018-06-07 01:04:34.977 +0000",1528333474.977199,1.818629,-0.851219,1.124491,0.638930,0.752084,0.161671,0.000000,0.000000,0.000000,-1,0.145904,0.540136,-0.243064,0.211183,-0.152826,-0.152592
"2018-06-07 01:04:34.987 +0000",1528333474.987273,1.816264,-0.855294,1.117942,0.636332,0.754764,0.159414,0.000000,0.000000,0.000000,-1,0.156531,0.574282,-0.263427,0.256002,-0.172977,-0.134511
"2018-06-07 01:04:34.997 +0000",1528333474.997347,1.821384,-0.858111,1.116242,0.633445,0.756609,0.162142,0.000000,0.000000,0.000000,-1,0.182515,0.653285,-0.237441,0.304757,-0.170504,-0.151628
"2018-06-07 01:04:35.007 +0000",1528333475.007420,1.826498,-0.861070,1.114378,0.630439,0.758540,0.164812,0.000000,0.000000,0.000000,-1,0.195330,0.649042,-0.264374,0.323708,-0.142406,-0.225664
"2018-06-07 01:04:35.017 +0000",1528333475.017494,1.831394,-0.864679,1.112374,0.626976,0.760887,0.167190,0.000000,0.000000,0.000000,-1,0.252583,0.583593,-0.326007,0.314110,-0.105430,-0.334961
"2018-06-07 01:04:35.028 +0000",1528333475.027568,1.832596,-0.869114,1.109485,0.623508,0.763757,0.167069,0.000000,0.000000,0.000000,-1,0.306948,0.255776,-0.389472,0.329052,-0.095377,-0.475373
"2018-06-07 01:04:35.038 +0000",1528333475.037642,1.831039,-0.873936,1.105677,0.620202,0.766861,0.165148,0.000000,0.000000,0.000000,-1,0.372288,0.107802,-0.399733,0.366310,-0.167328,-0.480364
"2018-06-07 01:04:35.048 +0000",1528333475.047716,1.828307,-0.878873,1.101536,0.616982,0.770020,0.162487,0.000000,0.000000,0.000000,-1,0.377714,0.022241,-0.411827,0.427559,-0.236588,-0.437572
"2018-06-07 01:04:35.058 +0000",1528333475.057790,1.824908,-0.883900,1.097531,0.613776,0.773218,0.159414,0.000000,0.000000,0.000000,-1,0.375752,-0.052376,-0.420644,0.492364,-0.294947,-0.454351
"2018-06-07 01:04:35.068 +0000",1528333475.067864,1.819078,-0.888756,1.092779,0.611048,0.776288,0.154908,0.000000,0.000000,0.000000,-1,0.426066,-0.287336,-0.378417,0.525838,-0.307309,-0.508042
"2018-06-07 01:04:35.078 +0000",1528333475.077938,1.807387,-0.892639,1.085502,0.609883,0.778730,0.147047,0.000000,0.000000,0.000000,-1,0.576476,-0.714629,-0.216507,0.639644,-0.274930,-0.519377
"2018-06-07 01:04:35.088 +0000",1528333475.088012,1.787757,-0.894290,1.074674,0.611394,0.779765,0.134770,0.000000,0.000000,0.000000,-1,0.725004,-1.246723,0.066651,0.828577,-0.217082,-0.427006
"2018-06-07 01:04:35.098 +0000",1528333475.098086,1.761642,-0.892437,1.061554,0.616123,0.778603,0.119033,0.000000,0.000000,0.000000,-1,0.746818,-1.648835,0.421470,0.958798,-0.155694,-0.282714
"2018-06-07 01:04:35.108 +0000",1528333475.108160,1.733881,-0.886948,1.048814,0.623397,0.775147,0.102577,0.000000,0.000000,0.000000,-1,0.662477,-1.799761,0.754674,0.916870,-0.114899,-0.177849
"2018-06-07 01:04:35.118 +0000",1528333475.118234,1.705426,-0.878523,1.036441,0.632513,0.769797,0.085673,0.000000,0.000000,0.000000,-1,0.658612,-1.906172,0.997472,0.696818,-0.107993,-0.189387
"2018-06-07 01:04:35.128 +0000",1528333475.128308,1.674068,-0.868364,1.022150,0.642634,0.763273,0.066603,0.000000,0.000000,0.000000,-1,0.840474,-2.068709,1.134266,0.375631,-0.085233,-0.244978
"2018-06-07 01:04:35.138 +0000",1528333475.138381,1.638343,-0.857684,1.004507,0.652698,0.756330,0.044155,0.000000,0.000000,0.000000,-1,1.091882,-2.249030,1.107350,-0.005039,0.002017,-0.282787
"2018-06-07 01:04:35.148 +0000",1528333475.148455,1.599040,-0.847696,0.984102,0.661448,0.749758,0.018687,0.000000,0.000000,0.000000,-1,1.350973,-2.412673,1.035288,-0.255564,0.084653,-0.286204
"2018-06-07 01:04:35.159 +0000",1528333475.158529,1.556727,-0.838452,0.960368,0.668548,0.743609,-0.009406,0.000000,0.000000,0.000000,-1,1.628380,-2.437624,0.886141,-0.351638,0.177365,-0.279656
"2018-06-07 01:04:35.169 +0000",1528333475.168603,1.513389,-0.830315,0.934010,0.673532,0.738144,-0.038708,0.000000,0.000000,0.000000,-1,1.826147,-2.331993,0.696682,-0.310937,0.348221,-0.247837
"2018-06-07 01:04:35.179 +0000",1528333475.178677,1.470768,-0.822965,0.906950,0.676651,0.733166,-0.067911,0.000000,0.000000,0.000000,-1,1.843175,-2.196156,0.514178,-0.155441,0.555348,-0.202078
"2018-06-07 01:04:35.189 +0000",1528333475.188751,1.431498,-0.816507,0.881221,0.678138,0.728759,-0.095079,0.000000,0.000000,0.000000,-1,1.793361,-1.966413,0.407396,0.045343,0.726213,-0.146590
"2018-06-07 01:04:35.199 +0000",1528333475.198825,1.396560,-0.809825,0.856372,0.679183,0.724167,-0.119550,0.000000,0.000000,0.000000,-1,1.776269,-1.569018,0.395684,0.226380,0.768952,-0.048220
"2018-06-07 01:04:35.209 +0000",1528333475.208899,1.366390,-0.801846,0.832129,0.680904,0.718641,-0.141152,0.000000,0.000000,0.000000,-1,1.790908,-1.167594,0.491475,0.338536,0.667299,0.075326
"2018-06-07 01:04:35.219 +0000",1528333475.218973,1.339583,-0.792237,0.808648,0.683566,0.711926,-0.160928,0.000000,0.000000,0.000000,-1,1.761681,-0.937498,0.576111,0.363705,0.542789,0.199410
"2018-06-07 01:04:35.229 +0000",1528333475.229047,1.317025,-0.782128,0.788400,0.686694,0.704791,-0.178103,0.000000,0.000000,0.000000,-1,1.564468,-0.755060,0.657767,0.304029,0.450101,0.348269
"2018-06-07 01:04:35.239 +0000",1528333475.239121,1.299663,-0.771422,0.772534,0.690729,0.697156,-0.192008,0.000000,0.000000,0.000000,-1,1.281036,-0.606961,0.755655,0.185415,0.350650,0.406409
"2018-06-07 01:04:35.249 +0000",1528333475.249195,1.284865,-0.761429,0.762118,0.694462,0.689956,-0.204163,0.000000,0.000000,0.000000,-1,0.872808,-0.849539,0.739749,0.002880,0.304444,0.428604
"2018-06-07 01:04:35.259 +0000",1528333475.259269,1.269735,-0.753705,0.758381,0.696363,0.684345,-0.216220,0.000000,0.000000,0.000000,-1,0.354356,-1.371893,0.613567,-0.184003,0.301404,0.541583
"2018-06-07 01:04:35.269 +0000",1528333475.269342,1.253257,-0.748330,0.759173,0.696190,0.680416,-0.228810,0.000000,0.000000,0.000000,-1,0.034222,-1.791656,0.500136,-0.176460,0.182301,0.494786
"2018-06-07 01:04:35.279 +0000",1528333475.279416,1.234949,-0.744713,0.762523,0.694203,0.677761,-0.242326,0.000000,0.000000,0.000000,-1,-0.152697,-2.110099,0.397451,-0.069371,0.004490,0.359178
"2018-06-07 01:04:35.289 +0000",1528333475.289490,1.215265,-0.741477,0.766746,0.691352,0.675378,-0.256705,0.000000,0.000000,0.000000,-1,-0.175806,-2.270522,0.417475,0.085290,-0.124490,0.224525
"2018-06-07 01:04:35.300 +0000",1528333475.299564,1.194631,-0.736931,0.770117,0.688756,0.672019,-0.272040,0.000000,0.000000,0.000000,-1,-0.021159,-2.283710,0.523571,0.217372,-0.158270,0.048224
"2018-06-07 01:04:35.310 +0000",1528333475.309638,1.173146,-0.729696,0.771740,0.687218,0.666643,-0.288650,0.000000,0.000000,0.000000,-1,0.222522,-2.220473,0.788881,0.292671,-0.109087,-0.061219
"2018-06-07 01:04:35.320 +0000",1528333475.319712,1.151668,-0.718934,0.772895,0.687374,0.658583,-0.306244,0.000000,0.000000,0.000000,-1,0.369443,-2.230066,1.080017,0.328769,-0.037229,-0.033386
"2018-06-07 01:04:35.330 +0000",1528333475.329786,1.129719,-0.706259,0.775592,0.687981,0.648992,-0.324794,0.000000,0.000000,0.000000,-1,0.321960,-2.387952,1.264677,0.328163,-0.027639,-0.014836
"2018-06-07 01:04:35.340 +0000",1528333475.339860,1.108686,-0.692925,0.780394,0.688683,0.638790,-0.343019,0.000000,0.000000,0.000000,-1,0.212165,-2.433595,1.343318,0.051735,0.136295,0.241945
"2018-06-07 01:04:35.350 +0000",1528333475.349934,1.088305,-0.679885,0.787909,0.688870,0.628703,-0.360818,0.000000,0.000000,0.000000,-1,0.040339,-2.494821,1.431736,-0.037686,0.155186,0.376550
"2018-06-07 01:04:35.360 +0000",1528333475.360008,1.069426,-0.667243,0.797019,0.688852,0.618822,-0.377548,0.000000,0.000000,0.000000,-1,-0.050105,-2.411661,1.436488,-0.163263,0.130857,0.442398
"2018-06-07 01:04:35.370 +0000",1528333475.370082,1.051667,-0.655520,0.806651,0.688290,0.609571,-0.393293,0.000000,0.000000,0.000000,-1,-0.103182,-2.339051,1.363677,-0.317639,0.101809,0.438932
"2018-06-07 01:04:35.380 +0000",1528333475.380156,1.034672,-0.644863,0.815456,0.687053,0.601089,-0.408229,0.000000,0.000000,0.000000,-1,-0.040149,-2.216380,1.210072,-0.441417,0.079865,0.363109
"2018-06-07 01:04:35.390 +0000",1528333475.390230,1.017080,-0.635451,0.822085,0.684547,0.593540,-0.423208,0.000000,0.000000,0.000000,-1,0.052560,-2.120939,1.025127,-0.536339,0.062649,0.290532
"2018-06-07 01:04:35.400 +0000",1528333475.400303,0.999722,-0.627204,0.827279,0.681193,0.586883,-0.437657,0.000000,0.000000,0.000000,-1,0.087177,-1.999477,0.879113,-0.576915,0.026840,0.320088
"2018-06-07 01:04:35.410 +0000",1528333475.410377,0.982962,-0.620404,0.832940,0.677069,0.581364,-0.451214,0.000000,0.000000,0.000000,-1,-0.045593,-1.970950,0.794524,-0.563650,0.009976,0.422482
"2018-06-07 01:04:35.420 +0000",1528333475.420451,0.968319,-0.615356,0.839644,0.672798,0.577250,-0.462737,0.000000,0.000000,0.000000,-1,-0.175335,-1.832647,0.712399,-0.552864,-0.023050,0.477980
"2018-06-07 01:04:35.431 +0000",1528333475.430525,0.955195,-0.611603,0.847035,0.668432,0.574181,-0.472774,0.000000,0.000000,0.000000,-1,-0.310295,-1.686653,0.624929,-0.540731,-0.087273,0.474300
"2018-06-07 01:04:35.441 +0000",1528333475.440599,0.944052,-0.609390,0.854668,0.664149,0.572368,-0.480938,0.000000,0.000000,0.000000,-1,-0.384177,-1.473403,0.508474,-0.551662,-0.136806,0.444606
"2018-06-07 01:04:35.451 +0000",1528333475.450673,0.934648,-0.608260,0.862283,0.660117,0.571440,-0.487546,0.000000,0.000000,0.000000,-1,-0.449958,-1.331687,0.440195,-0.537269,-0.169264,0.380902
"2018-06-07 01:04:35.461 +0000",1528333475.460747,0.927044,-0.608717,0.870452,0.656182,0.571815,-0.492395,0.000000,0.000000,0.000000,-1,-0.539905,-1.224092,0.377251,-0.513940,-0.158012,0.376916
"2018-06-07 01:04:35.471 +0000",1528333475.470821,0.920125,-0.609885,0.879042,0.652227,0.572773,-0.496518,0.000000,0.000000,0.000000,-1,-0.654997,-1.157170,0.311020,-0.510458,-0.136311,0.380429
"2018-06-07 01:04:35.481 +0000",1528333475.480895,0.914569,-0.612383,0.887921,0.648323,0.574819,-0.499259,0.000000,0.000000,0.000000,-1,-0.745798,-1.014323,0.218062,-0.498711,-0.135336,0.351112
"2018-06-07 01:04:35.491 +0000",1528333475.490969,0.910971,-0.616435,0.896919,0.644677,0.578130,-0.500157,0.000000,0.000000,0.000000,-1,-0.846944,-0.813206,0.097331,-0.491494,-0.152410,0.302815
"2018-06-07 01:04:35.501 +0000",1528333475.501043,0.910227,-0.622992,0.906053,0.641298,0.583467,-0.498300,0.000000,0.000000,0.000000,-1,-0.947929,-0.564773,-0.050154,-0.478639,-0.194841,0.231607
"2018-06-07 01:04:35.511 +0000",1528333475.511117,0.911591,-0.630544,0.914871,0.638475,0.589584,-0.494711,0.000000,0.000000,0.000000,-1,-1.046860,-0.319655,-0.191200,-0.477465,-0.220810,0.175131
"2018-06-07 01:04:35.521 +0000",1528333475.521191,0.915572,-0.639860,0.924399,0.636057,0.597084,-0.488798,0.000000,0.000000,0.000000,-1,-1.214357,-0.113329,-0.289175,-0.510843,-0.237159,0.148130
"2018-06-07 01:04:35.531 +0000",1528333475.531265,0.922944,-0.651259,0.935242,0.634175,0.606188,-0.479957,0.000000,0.000000,0.000000,-1,-1.424768,0.151171,-0.413775,-0.570759,-0.249560,0.083351
"2018-06-07 01:04:35.541 +0000",1528333475.541338,0.933719,-0.666287,0.947176,0.631914,0.618072,-0.467623,0.000000,0.000000,0.000000,-1,-1.629128,0.374387,-0.637467,-0.572710,-0.249435,-0.045926
"2018-06-07 01:04:35.551 +0000",1528333475.551412,0.947222,-0.683918,0.959052,0.629226,0.631835,-0.452614,0.000000,0.000000,0.000000,-1,-1.818145,0.715516,-0.958735,-0.467528,-0.249450,-0.164360
"2018-06-07 01:04:35.561 +0000",1528333475.561486,0.965344,-0.705324,0.971197,0.626058,0.648280,-0.433340,0.000000,0.000000,0.000000,-1,-2.035667,1.137764,-1.271097,-0.303915,-0.242778,-0.224574
"2018-06-07 01:04:35.572 +0000",1528333475.571560,0.988063,-0.728654,0.983921,0.622941,0.665866,-0.410569,0.000000,0.000000,0.000000,-1,-2.083338,1.477370,-1.396926,-0.068269,-0.211078,-0.329955
"2018-06-07 01:04:35.582 +0000",1528333475.581634,1.011142,-0.750135,0.997368,0.619983,0.681738,-0.388400,0.000000,0.000000,0.000000,-1,-1.859551,1.330803,-1.113895,0.279645,-0.147146,-0.753507
"2018-06-07 01:04:35.592 +0000",1528333475.591708,1.030436,-0.765239,1.009906,0.618461,0.692709,-0.371026,0.000000,0.000000,0.000000,-1,-1.434753,0.951590,-0.716907,0.608071,0.114756,-1.017966
"2018-06-07 01:04:35.602 +0000",1528333475.601782,1.041651,-0.775119,1.019671,0.616645,0.699801,-0.360595,0.000000,0.000000,0.000000,-1,-0.973119,0.289722,-0.431616,0.823449,0.509855,-1.175065
"2018-06-07 01:04:35.612 +0000",1528333475.611856,1.045746,-0.780227,1.026209,0.615014,0.703441,-0.356270,0.000000,0.000000,0.000000,-1,-0.553963,-0.123194,-0.116462,1.125831,0.868016,-1.124244
"2018-06-07 01:04:35.622 +0000",1528333475.621930,1.046707,-0.779791,1.033068,0.615622,0.703131,-0.355832,0.000000,0.000000,0.000000,-1,-0.339674,-0.484036,0.472527,1.390451,0.957040,-0.731646
"2018-06-07 01:04:35.632 +0000",1528333475.632004,1.045130,-0.773549,1.042052,0.618845,0.698678,-0.358999,0.000000,0.000000,0.000000,-1,-0.210646,-0.879790,0.952969,1.164862,0.714377,-0.465113
"2018-06-07 01:04:35.642 +0000",1528333475.642078,1.041147,-0.765021,1.051130,0.622529,0.692552,-0.364457,0.000000,0.000000,0.000000,-1,-0.107405,-1.023790,1.067408,0.489394,0.343016,-0.488326
"2018-06-07 01:04:35.652 +0000",1528333475.652152,1.039735,-0.756294,1.058434,0.627202,0.686230,-0.368383,0.000000,0.000000,0.000000,-1,0.030250,-0.437959,0.987047,-0.070912,0.079456,-0.474101
"2018-06-07 01:04:35.662 +0000",1528333475.662226,1.044898,-0.748124,1.062661,0.633923,0.680265,-0.367942,0.000000,0.000000,0.000000,-1,0.164975,0.406094,0.846134,-0.425885,0.108584,-0.232293
"2018-06-07 01:04:35.672 +0000",1528333475.672299,1.053496,-0.741509,1.064570,0.640960,0.675402,-0.364695,0.000000,0.000000,0.000000,-1,0.242527,0.837911,0.541729,-0.614089,0.371305,-0.091985
"2018-06-07 01:04:35.682 +0000",1528333475.682373,1.062598,-0.738160,1.060315,0.646226,0.672928,-0.359945,0.000000,0.000000,0.000000,-1,0.509933,1.306408,-0.007175,-0.866792,0.800598,-0.257716
"2018-06-07 01:04:35.692 +0000",1528333475.692447,1.069925,-0.738241,1.049260,0.648797,0.672988,-0.355174,0.000000,0.000000,0.000000,-1,0.759464,1.453032,-0.513949,-0.974771,0.954286,0.029064
"2018-06-07 01:04:35.703 +0000",1528333475.702521,1.070433,-0.740859,1.032800,0.647430,0.674922,-0.353998,0.000000,0.000000,0.000000,-1,1.034008,1.053171,-0.791106,-0.919235,0.747884,0.287042
"2018-06-07 01:04:35.713 +0000",1528333475.712595,1.066318,-0.742493,1.013220,0.645002,0.676127,-0.356126,0.000000,0.000000,0.000000,-1,1.195108,0.917643,-0.826290,-0.672010,0.398931,0.274293
"2018-06-07 01:04:35.723 +0000",1528333475.722669,1.068620,-0.744371,0.995158,0.644706,0.677509,-0.354028,0.000000,0.000000,0.000000,-1,0.997702,1.690881,-0.792395,-0.256446,-0.000797,0.752603
"2018-06-07 01:04:35.733 +0000",1528333475.732743,1.083612,-0.747333,0.981479,0.648164,0.679685,-0.343382,0.000000,0.000000,0.000000,-1,0.649540,2.601786,-0.702896,-0.012468,-0.259153,1.228377
"2018-06-07 01:04:35.743 +0000",1528333475.742817,1.105968,-0.751501,0.972781,0.653140,0.682736,-0.327535,0.000000,0.000000,0.000000,-1,0.338301,2.812141,-0.547754,0.007016,-0.418515,1.100576
"2018-06-07 01:04:35.753 +0000",1528333475.752891,1.128916,-0.756826,0.968546,0.657188,0.686618,-0.310902,0.000000,0.000000,0.000000,-1,-0.069085,2.459093,-0.659715,-0.173439,-0.482135,0.980763
"2018-06-07 01:04:35.763 +0000",1528333475.762965,1.151302,-0.766645,0.968248,0.657794,0.693723,-0.293353,0.000000,0.000000,0.000000,-1,-0.480239,2.177138,-0.973682,-0.370333,-0.368985,1.154605
"2018-06-07 01:04:35.773 +0000",1528333475.773039,1.172799,-0.779357,0.971123,0.655765,0.702822,-0.275706,0.000000,0.000000,0.000000,-1,-0.748997,1.843138,-1.085905,-0.299945,-0.165087,1.161433
"2018-06-07 01:04:35.783 +0000",1528333475.783113,1.193310,-0.792124,0.978916,0.652886,0.711847,-0.258870,0.000000,0.000000,0.000000,-1,-1.061846,1.402442,-0.914368,-0.024972,-0.015298,0.892980
"2018-06-07 01:04:35.793 +0000",1528333475.793187,1.216547,-0.803847,0.990760,0.650853,0.720031,-0.240719,0.000000,0.000000,0.000000,-1,-1.200724,1.540844,-0.764132,0.196437,0.206971,0.628353
"2018-06-07 01:04:35.803 +0000",1528333475.803260,1.244074,-0.814715,1.003408,0.649782,0.727530,-0.220189,0.000000,0.000000,0.000000,-1,-1.159369,1.896462,-0.722318,0.339766,0.435388,0.317662
"2018-06-07 01:04:35.813 +0000",1528333475.813334,1.271529,-0.824180,1.015477,0.648972,0.733991,-0.200230,0.000000,0.000000,0.000000,-1,-1.025803,1.806291,-0.597036,0.427062,0.389102,0.078800
"2018-06-07 01:04:35.823 +0000",1528333475.823408,1.295931,-0.830111,1.025647,0.649463,0.738006,-0.183151,0.000000,0.000000,0.000000,-1,-0.743416,1.648784,-0.284052,0.427564,0.209656,-0.003205
"2018-06-07 01:04:35.833 +0000",1528333475.833482,1.318220,-0.831318,1.032625,0.652520,0.738820,-0.168407,0.000000,0.000000,0.000000,-1,-0.400897,1.732649,0.101564,0.275168,0.044963,-0.022373
"2018-06-07 01:04:35.844 +0000",1528333475.843556,1.341217,-0.828636,1.037572,0.658147,0.737010,-0.153809,0.000000,0.000000,0.000000,-1,-0.216498,2.017333,0.399923,0.060359,-0.032970,-0.010498
"2018-06-07 01:04:35.854 +0000",1528333475.853630,1.367664,-0.824094,1.040734,0.665256,0.733933,-0.137025,0.000000,0.000000,0.000000,-1,-0.075942,2.513497,0.500004,-0.182163,-0.018585,0.003007
"2018-06-07 01:04:35.864 +0000",1528333475.863704,1.396388,-0.818841,1.041784,0.672705,0.730354,-0.118530,0.000000,0.000000,0.000000,-1,0.065257,2.840870,0.537205,-0.355795,0.035149,-0.006791
"2018-06-07 01:04:35.874 +0000",1528333475.873778,1.424232,-0.812786,1.040283,0.680106,0.726205,-0.100400,0.000000,0.000000,0.000000,-1,0.240268,2.851026,0.587389,-0.390769,0.081855,-0.003772
"2018-06-07 01:04:35.884 +0000",1528333475.883852,1.447768,-0.806354,1.035627,0.686902,0.721769,-0.084937,0.000000,0.000000,0.000000,-1,0.457942,2.584874,0.587192,-0.369061,0.062335,0.010993
"2018-06-07 01:04:35.894 +0000",1528333475.893926,1.464118,-0.800381,1.027923,0.692474,0.717621,-0.074153,0.000000,0.000000,0.000000,-1,0.633466,2.021453,0.504478,-0.299270,0.007782,0.039592
"2018-06-07 01:04:35.904 +0000",1528333475.904000,1.473868,-0.796370,1.019465,0.696023,0.714822,-0.067676,0.000000,0.000000,0.000000,-1,0.658446,1.352557,0.343279,-0.223168,-0.033304,0.124576
"2018-06-07 01:04:35.914 +0000",1528333475.914073,1.478046,-0.794291,1.012642,0.697778,0.713367,-0.064906,0.000000,0.000000,0.000000,-1,0.420331,0.786468,0.099082,-0.169763,-0.077472,0.221491
"2018-06-07 01:04:35.924 +0000",1528333475.924147,1.484012,-0.795242,1.010697,0.697476,0.714033,-0.060682,0.000000,0.000000,0.000000,-1,0.017077,0.750288,-0.179767,-0.077741,-0.171751,0.271437
"2018-06-07 01:04:35.934 +0000",1528333475.934221,1.497193,-0.799556,1.015016,0.695137,0.717047,-0.051257,0.000000,0.000000,0.000000,-1,-0.436895,1.119090,-0.469155,0.020210,-0.207586,0.305194
"2018-06-07 01:04:35.944 +0000",1528333475.944295,1.519109,-0.806067,1.024264,0.691416,0.721570,-0.035769,0.000000,0.000000,0.000000,-1,-0.673958,1.566724,-0.565193,0.161642,-0.202206,0.248568
"2018-06-07 01:04:35.954 +0000",1528333475.954369,1.542677,-0.810930,1.033971,0.688551,0.724928,-0.019366,0.000000,0.000000,0.000000,-1,-0.671068,1.633015,-0.402585,0.320314,-0.238676,0.049106
"2018-06-07 01:04:35.964 +0000",1528333475.964443,1.562894,-0.813247,1.041930,0.687121,0.726522,-0.005430,0.000000,0.000000,0.000000,-1,-0.495141,1.348173,-0.161796,0.389829,-0.273092,-0.161150
"2018-06-07 01:04:35.975 +0000",1528333475.974517,1.577366,-0.813618,1.046343,0.686858,0.726777,0.004512,0.000000,0.000000,0.000000,-1,-0.234559,1.057318,-0.001892,0.327882,-0.264604,-0.269619
"2018-06-07 01:04:35.985 +0000",1528333475.984591,1.589450,-0.813003,1.047775,0.687200,0.726355,0.012820,0.000000,0.000000,0.000000,-1,-0.010763,1.087064,0.121381,0.236949,-0.224051,-0.241824
"2018-06-07 01:04:35.995 +0000",1528333475.994665,1.601574,-0.811044,1.046558,0.688415,0.725007,0.021195,0.000000,0.000000,0.000000,-1,0.099604,1.363623,0.213362,0.156053,-0.182099,-0.168335
"2018-06-07 01:04:36.005 +0000",1528333476.004739,1.615018,-0.808720,1.044335,0.689748,0.723404,0.030521,0.000000,0.000000,0.000000,-1,0.158077,1.517365,0.239491,0.070429,-0.129639,-0.187702
"2018-06-07 01:04:36.015 +0000",1528333476.014813,1.627651,-0.806506,1.041443,0.690905,0.721874,0.039323,0.000000,0.000000,0.000000,-1,0.192976,1.425331,0.219782,0.018369,-0.076732,-0.215822
"2018-06-07 01:04:36.025 +0000",1528333476.024886,1.639262,-0.805207,1.039003,0.691337,0.720974,0.047407,0.000000,0.000000,0.000000,-1,0.187466,1.247817,0.138605,-0.050056,-0.028133,-0.168638
"2018-06-07 01:04:36.035 +0000",1528333476.034960,1.649738,-0.805130,1.037566,0.690858,0.720921,0.054651,0.000000,0.000000,0.000000,-1,0.058726,1.110986,-0.040055,-0.141252,0.011379,-0.060480
"2018-06-07 01:04:36.045 +0000",1528333476.045034,1.661346,-0.807220,1.038535,0.688675,0.722368,0.062530,0.000000,0.000000,0.000000,-1,-0.082361,1.084094,-0.265696,-0.218261,0.053893,0.045670
"2018-06-07 01:04:36.055 +0000",1528333476.055108,1.674511,-0.811092,1.041547,0.685004,0.725040,0.071301,0.000000,0.000000,0.000000,-1,-0.194441,1.088916,-0.442907,-0.206290,0.058423,0.087879
"2018-06-07 01:04:36.065 +0000",1528333476.065182,1.689162,-0.816444,1.046688,0.680023,0.728715,0.080869,0.000000,0.000000,0.000000,-1,-0.273222,1.032153,-0.571969,-0.147141,0.049651,0.065600
"2018-06-07 01:04:36.075 +0000",1528333476.075256,1.704052,-0.822592,1.052727,0.674291,0.732912,0.090389,0.000000,0.000000,0.000000,-1,-0.349052,1.054370,-0.684673,-0.068944,0.052382,0.028340
"2018-06-07 01:04:36.085 +0000",1528333476.085330,1.720727,-0.829481,1.060190,0.667682,0.737581,0.100863,0.000000,0.000000,0.000000,-1,-0.414647,1.123697,-0.768222,0.018063,0.072310,-0.013293
"2018-06-07 01:04:36.095 +0000",1528333476.095404,1.737877,-0.837047,1.068377,0.660332,0.742669,0.111367,0.000000,0.000000,0.000000,-1,-0.416102,1.080112,-0.846867,0.101433,0.098807,-0.121086
"2018-06-07 01:04:36.105 +0000",1528333476.105478,1.754401,-0.845349,1.076681,0.652317,0.748203,0.121133,0.000000,0.000000,0.000000,-1,-0.345271,0.966332,-0.892538,0.171291,0.105542,-0.237084
"2018-06-07 01:04:36.116 +0000",1528333476.115552,1.768753,-0.853696,1.083327,0.644366,0.753715,0.129249,0.000000,0.000000,0.000000,-1,-0.242310,0.930388,-0.891802,0.258359,0.085183,-0.285911
"2018-06-07 01:04:36.126 +0000",1528333476.125626,1.781897,-0.861832,1.088071,0.636594,0.759037,0.136418,0.000000,0.000000,0.000000,-1,-0.098849,0.955814,-0.838272,0.352175,0.034680,-0.295719
"2018-06-07 01:04:36.136 +0000",1528333476.135700,1.792604,-0.869891,1.090058,0.629109,0.764259,0.141876,0.000000,0.000000,0.000000,-1,0.098376,0.889235,-0.799118,0.433986,-0.053733,-0.310241
"2018-06-07 01:04:36.146 +0000",1528333476.145773,1.799938,-0.878078,1.089501,0.621937,0.769513,0.145059,0.000000,0.000000,0.000000,-1,0.283087,0.687573,-0.754951,0.533672,-0.135663,-0.301264
"2018-06-07 01:04:36.156 +0000",1528333476.155847,1.803741,-0.886036,1.086923,0.615403,0.774571,0.146005,0.000000,0.000000,0.000000,-1,0.345962,0.549278,-0.718925,0.621353,-0.190953,-0.273355
"2018-06-07 01:04:36.166 +0000",1528333476.165921,1.806931,-0.892954,1.084033,0.609710,0.778927,0.146710,0.000000,0.000000,0.000000,-1,0.330254,0.544293,-0.587675,0.706727,-0.212094,-0.232572
"2018-06-07 01:04:36.176 +0000",1528333476.175995,1.809668,-0.898224,1.080395,0.605309,0.782222,0.147406,0.000000,0.000000,0.000000,-1,0.351964,0.554575,-0.406987,0.733330,-0.197032,-0.242498
"2018-06-07 01:04:36.186 +0000",1528333476.186069,1.811338,-0.902044,1.075739,0.602155,0.784596,0.147703,0.000000,0.000000,0.000000,-1,0.404459,0.486039,-0.258867,0.682513,-0.153828,-0.327574
"2018-06-07 01:04:36.196 +0000",1528333476.196143,1.810110,-0.905285,1.069443,0.599862,0.786601,0.146360,0.000000,0.000000,0.000000,-1,0.470473,0.325779,-0.218610,0.567069,-0.093715,-0.436094
"2018-06-07 01:04:36.206 +0000",1528333476.206217,1.805579,-0.908914,1.061648,0.597739,0.788837,0.142976,0.000000,0.000000,0.000000,-1,0.578002,0.098937,-0.242105,0.456201,-0.027789,-0.538514
"2018-06-07 01:04:36.216 +0000",1528333476.216291,1.796936,-0.912983,1.051451,0.595819,0.791331,0.137083,0.000000,0.000000,0.000000,-1,0.740037,-0.104749,-0.253825,0.411810,-0.034327,-0.630156
"2018-06-07 01:04:36.226 +0000",1528333476.226365,1.783590,-0.917308,1.037923,0.594245,0.793968,0.128395,0.000000,0.000000,0.000000,-1,0.964837,-0.325972,-0.230243,0.398491,-0.110023,-0.700050
"2018-06-07 01:04:36.236 +0000",1528333476.236439,1.762140,-0.921241,1.018649,0.593793,0.796353,0.115026,0.000000,0.000000,0.000000,-1,1.308838,-0.722892,-0.114940,0.446124,-0.257763,-0.753789
"2018-06-07 01:04:36.247 +0000",1528333476.246513,1.729564,-0.924144,0.992282,0.594939,0.798105,0.095259,0.000000,0.000000,0.000000,-1,1.702166,-1.300922,0.027690,0.555147,-0.327799,-0.669081
"2018-06-07 01:04:36.257 +0000",1528333476.256586,1.686460,-0.924576,0.961263,0.598148,0.798365,0.069494,0.000000,0.000000,0.000000,-1,1.858314,-1.988813,0.295318,0.720989,-0.293345,-0.402456
"2018-06-07 01:04:36.267 +0000",1528333476.266660,1.639329,-0.919576,0.931170,0.604734,0.795344,0.041509,0.000000,0.000000,0.000000,-1,1.699584,-2.356791,0.767895,0.879382,-0.233974,-0.085165
"2018-06-07 01:04:36.277 +0000",1528333476.276734,1.593933,-0.909078,0.904123,0.614307,0.788938,0.014215,0.000000,0.000000,0.000000,-1,1.566922,-2.374431,1.222069,0.762981,-0.236585,0.069693
"2018-06-07 01:04:36.287 +0000",1528333476.286808,1.549407,-0.894108,0.878703,0.626070,0.779651,-0.013393,0.000000,0.000000,0.000000,-1,1.563336,-2.485658,1.565960,0.456327,-0.274234,0.038112
"2018-06-07 01:04:36.297 +0000",1528333476.296882,1.505104,-0.875997,0.855862,0.638850,0.768182,-0.042028,0.000000,0.000000,0.000000,-1,1.481038,-2.689856,1.776381,0.168249,-0.202707,0.023931
"2018-06-07 01:04:36.307 +0000",1528333476.306956,1.463591,-0.855978,0.837721,0.651716,0.755213,-0.070136,0.000000,0.000000,0.000000,-1,1.284081,-2.762093,1.856220,-0.030150,0.008246,-0.000680
"2018-06-07 01:04:36.317 +0000",1528333476.317030,1.424168,-0.835354,0.822043,0.663715,0.741534,-0.098023,0.000000,0.000000,0.000000,-1,1.318318,-2.724885,1.906805,-0.019413,0.309308,-0.174682
"2018-06-07 01:04:36.327 +0000",1528333476.327104,1.385122,-0.814279,0.803049,0.674595,0.727231,-0.126714,0.000000,0.000000,0.000000,-1,1.729400,-2.373153,1.811154,0.085629,0.702029,-0.285258
"2018-06-07 01:04:36.337 +0000",1528333476.337178,1.348751,-0.794341,0.777116,0.683551,0.713402,-0.154324,0.000000,0.000000,0.000000,-1,2.281471,-1.531561,1.486418,0.174192,1.154579,-0.114368
"2018-06-07 01:04:36.347 +0000",1528333476.347252,1.317436,-0.776016,0.746891,0.690924,0.700442,-0.178897,0.000000,0.000000,0.000000,-1,2.516531,-0.856597,1.157620,0.226281,1.458906,0.143314
"2018-06-07 01:04:36.357 +0000",1528333476.357326,1.290239,-0.759513,0.717743,0.696818,0.688568,-0.200794,0.000000,0.000000,0.000000,-1,2.399846,-0.657602,1.008952,0.186605,1.383118,0.319309
"2018-06-07 01:04:36.367 +0000",1528333476.367399,1.266142,-0.743374,0.692648,0.702288,0.676776,-0.220830,0.000000,0.000000,0.000000,-1,2.121531,-0.737444,1.015810,0.071851,1.039213,0.358907
"2018-06-07 01:04:36.377 +0000",1528333476.377473,1.242033,-0.728421,0.676383,0.706260,0.665692,-0.240936,0.000000,0.000000,0.000000,-1,1.369102,-1.577208,1.033377,-0.092490,0.757068,0.499756
"2018-06-07 01:04:36.388 +0000",1528333476.387547,1.218252,-0.717010,0.671528,0.707414,0.657134,-0.260268,0.000000,0.000000,0.000000,-1,0.537849,-2.191486,0.892584,-0.241579,0.573090,0.723403
"2018-06-07 01:04:36.398 +0000",1528333476.397621,1.196306,-0.710005,0.673503,0.705800,0.651837,-0.277406,0.000000,0.000000,0.000000,-1,-0.010409,-2.331345,0.634202,-0.206685,0.319262,0.545915
"2018-06-07 01:04:36.408 +0000",1528333476.407695,1.174833,-0.706434,0.678389,0.701824,0.649126,-0.293393,0.000000,0.000000,0.000000,-1,-0.238635,-2.485864,0.419146,-0.065044,0.080748,0.219098
"2018-06-07 01:04:36.418 +0000",1528333476.417769,1.150474,-0.704165,0.681821,0.695812,0.647398,-0.311000,0.000000,0.000000,0.000000,-1,-0.096615,-2.698950,0.279443,0.080814,-0.112471,-0.006200
"2018-06-07 01:04:36.428 +0000",1528333476.427843,1.121682,-0.701413,0.682573,0.688174,0.645298,-0.331674,0.000000,0.000000,0.000000,-1,0.152552,-3.024334,0.288682,0.212400,-0.192585,-0.039572
"2018-06-07 01:04:36.438 +0000",1528333476.437917,1.088826,-0.695798,0.682107,0.680106,0.640998,-0.355776,0.000000,0.000000,0.000000,-1,0.315474,-3.278678,0.577993,0.299798,-0.212928,0.090410
"2018-06-07 01:04:36.448 +0000",1528333476.447991,1.058224,-0.685186,0.683904,0.674793,0.632817,-0.379733,0.000000,0.000000,0.000000,-1,0.402325,-3.071124,1.142036,0.349301,-0.187138,0.233798
"2018-06-07 01:04:36.458 +0000",1528333476.458065,1.032992,-0.670227,0.690014,0.673053,0.621164,-0.401441,0.000000,0.000000,0.000000,-1,0.304876,-2.829730,1.629153,0.249021,-0.122812,0.352857
"2018-06-07 01:04:36.468 +0000",1528333476.468139,1.012385,-0.653782,0.700771,0.673211,0.608193,-0.420581,0.000000,0.000000,0.000000,-1,0.101474,-2.745573,1.844993,0.048667,-0.056344,0.532870
"2018-06-07 01:04:36.478 +0000",1528333476.478212,0.991962,-0.639024,0.713899,0.671922,0.596412,-0.439104,0.000000,0.000000,0.000000,-1,-0.139299,-2.829278,1.750644,-0.136415,-0.014122,0.657274
"2018-06-07 01:04:36.488 +0000",1528333476.488286,0.971805,-0.627311,0.725799,0.668659,0.586970,-0.456465,0.000000,0.000000,0.000000,-1,-0.115750,-2.614747,1.393024,-0.360386,-0.031199,0.654402
"2018-06-07 01:04:36.498 +0000",1528333476.498360,0.951122,-0.618251,0.734608,0.663378,0.579611,-0.473265,0.000000,0.000000,0.000000,-1,-0.074544,-2.585895,1.084304,-0.573153,-0.076926,0.558943
"2018-06-07 01:04:36.508 +0000",1528333476.508434,0.930192,-0.611221,0.742998,0.656579,0.573868,-0.489469,0.000000,0.000000,0.000000,-1,-0.101744,-2.597420,0.934818,-0.616525,-0.043304,0.638944
"2018-06-07 01:04:36.519 +0000",1528333476.518508,0.909146,-0.605184,0.751049,0.648854,0.568913,-0.505297,0.000000,0.000000,0.000000,-1,-0.179974,-2.522653,0.854541,-0.678060,0.012233,0.686449
"2018-06-07 01:04:36.529 +0000",1528333476.528582,0.889433,-0.600318,0.758866,0.640910,0.564905,-0.519726,0.000000,0.000000,0.000000,-1,-0.206636,-2.346640,0.748625,-0.708385,0.018179,0.660977
"2018-06-07 01:04:36.539 +0000",1528333476.538656,0.872044,-0.596621,0.766209,0.633371,0.561851,-0.532131,0.000000,0.000000,0.000000,-1,-0.239660,-2.057549,0.636599,-0.699640,0.001260,0.646557
"2018-06-07 01:04:36.549 +0000",1528333476.548730,0.858296,-0.595035,0.773494,0.626670,0.560538,-0.541371,0.000000,0.000000,0.000000,-1,-0.321943,-1.735586,0.506496,-0.682914,-0.011236,0.648503
"2018-06-07 01:04:36.559 +0000",1528333476.558804,0.847157,-0.594632,0.780852,0.620770,0.560204,-0.548467,0.000000,0.000000,0.000000,-1,-0.463226,-1.440246,0.403341,-0.635678,-0.023979,0.637334
"2018-06-07 01:04:36.569 +0000",1528333476.568878,0.838617,-0.596084,0.789212,0.615457,0.561406,-0.553204,0.000000,0.000000,0.000000,-1,-0.663488,-1.279155,0.337578,-0.575464,-0.042028,0.595105
"2018-06-07 01:04:36.579 +0000",1528333476.578952,0.833068,-0.599133,0.799065,0.611109,0.563926,-0.555457,0.000000,0.000000,0.000000,-1,-0.843153,-1.027068,0.313983,-0.521922,-0.082817,0.587805
"2018-06-07 01:04:36.589 +0000",1528333476.589025,0.831644,-0.604042,0.810507,0.608264,0.567974,-0.554455,0.000000,0.000000,0.000000,-1,-1.003043,-0.766239,0.312956,-0.513003,-0.160747,0.525616
"2018-06-07 01:04:36.599 +0000",1528333476.599099,0.833430,-0.609259,0.823445,0.607052,0.572260,-0.551367,0.000000,0.000000,0.000000,-1,-1.169369,-0.479139,0.326005,-0.473614,-0.220255,0.473243
"2018-06-07 01:04:36.609 +0000",1528333476.609173,0.839103,-0.616163,0.837418,0.607216,0.577908,-0.545262,0.000000,0.000000,0.000000,-1,-1.351608,-0.148763,0.217667,-0.524544,-0.255825,0.388554
"2018-06-07 01:04:36.619 +0000",1528333476.619247,0.849409,-0.625892,0.851946,0.608552,0.585821,-0.535237,0.000000,0.000000,0.000000,-1,-1.576175,0.307108,-0.002075,-0.632569,-0.272283,0.316349
"2018-06-07 01:04:36.629 +0000",1528333476.629321,0.866655,-0.639890,0.867256,0.611381,0.597107,-0.519303,0.000000,0.000000,0.000000,-1,-1.827788,0.943175,-0.278241,-0.739906,-0.282319,0.219986
"2018-06-07 01:04:36.639 +0000",1528333476.639395,0.891164,-0.656935,0.883140,0.615917,0.610693,-0.497694,0.000000,0.000000,0.000000,-1,-2.121325,1.664844,-0.576650,-0.771786,-0.289297,0.097731
"2018-06-07 01:04:36.649 +0000",1528333476.649469,0.923815,-0.677984,0.900188,0.621441,0.627224,-0.469468,0.000000,0.000000,0.000000,-1,-2.399839,2.357074,-0.912827,-0.692074,-0.293209,-0.025511
"2018-06-07 01:04:36.660 +0000",1528333476.659543,0.963276,-0.702637,0.916768,0.626588,0.646233,-0.435626,0.000000,0.000000,0.000000,-1,-2.487511,2.971153,-1.334644,-0.564302,-0.252785,-0.215741
"2018-06-07 01:04:36.670 +0000",1528333476.669617,1.005367,-0.730326,0.933011,0.629010,0.667113,-0.399131,0.000000,0.000000,0.000000,-1,-2.446542,3.082250,-1.622687,-0.283902,-0.135161,-0.369164
"2018-06-07 01:04:36.680 +0000",1528333476.679691,1.043162,-0.755795,0.947254,0.628756,0.685868,-0.366403,0.000000,0.000000,0.000000,-1,-2.071465,2.646213,-1.582864,0.134001,0.108154,-0.585196
"2018-06-07 01:04:36.690 +0000",1528333476.689765,1.067878,-0.774424,0.956340,0.626314,0.699304,-0.344534,0.000000,0.000000,0.000000,-1,-1.270139,1.520355,-1.159868,0.647993,0.427802,-1.269830
"2018-06-07 01:04:36.700 +0000",1528333476.699838,1.077291,-0.784238,0.960805,0.623455,0.706286,-0.335356,0.000000,0.000000,0.000000,-1,-0.587803,0.354988,-0.556005,1.139469,0.912595,-1.455034
"2018-06-07 01:04:36.710 +0000",1528333476.709912,1.076362,-0.787989,0.964270,0.620807,0.708936,-0.334675,0.000000,0.000000,0.000000,-1,-0.303050,-0.568483,-0.046261,1.530743,1.297076,-1.142971
"2018-06-07 01:04:36.720 +0000",1528333476.719986,1.070654,-0.786583,0.969144,0.619761,0.707944,-0.338691,0.000000,0.000000,0.000000,-1,-0.205142,-0.975094,0.384741,1.673421,1.084674,-0.812417
"2018-06-07 01:04:36.730 +0000",1528333476.730060,1.064037,-0.781497,0.974562,0.620646,0.704343,-0.344528,0.000000,0.000000,0.000000,-1,-0.047822,-1.047320,0.697183,1.190130,0.475070,-0.522644
"2018-06-07 01:04:36.740 +0000",1528333476.740134,1.057434,-0.773257,0.979604,0.623393,0.698469,-0.351457,0.000000,0.000000,0.000000,-1,0.136120,-0.974293,0.944373,0.531454,0.064775,-0.423827
"2018-06-07 01:04:36.750 +0000",1528333476.750208,1.054419,-0.763412,0.984692,0.628279,0.691390,-0.356713,0.000000,0.000000,0.000000,-1,0.226883,-0.532319,1.106798,-0.021392,-0.238738,-0.422492
"2018-06-07 01:04:36.760 +0000",1528333476.760282,1.059412,-0.751944,0.988847,0.636925,0.683060,-0.357428,0.000000,0.000000,0.000000,-1,0.360108,0.504219,1.137475,-0.462594,-0.459977,-0.371286
"2018-06-07 01:04:36.770 +0000",1528333476.770356,1.072857,-0.740922,0.988914,0.648249,0.674968,-0.352408,0.000000,0.000000,0.000000,-1,0.525169,1.525695,0.853946,-0.730921,-0.235103,-0.202677
"2018-06-07 01:04:36.780 +0000",1528333476.780430,1.089583,-0.735616,0.987309,0.657218,0.671044,-0.343169,0.000000,0.000000,0.000000,-1,0.307842,1.829476,0.257269,-0.812796,0.437202,0.040358
"2018-06-07 01:04:36.791 +0000",1528333476.790504,1.105341,-0.736362,0.980891,0.662096,0.671597,-0.332545,0.000000,0.000000,0.000000,-1,0.514182,2.036892,-0.377231,-0.812914,1.050754,0.041743
"2018-06-07 01:04:36.801 +0000",1528333476.800578,1.114289,-0.739221,0.966101,0.663319,0.673712,-0.325760,0.000000,0.000000,0.000000,-1,0.949608,1.742493,-0.827628,-0.759861,1.142831,0.480011
"2018-06-07 01:04:36.811 +0000",1528333476.810651,1.112498,-0.742994,0.947775,0.660450,0.676496,-0.325820,0.000000,0.000000,0.000000,-1,1.039514,0.849610,-0.935845,-0.685779,0.830981,0.700057
"2018-06-07 01:04:36.821 +0000",1528333476.820725,1.107202,-0.747391,0.929894,0.656048,0.679728,-0.327980,0.000000,0.000000,0.000000,-1,0.949832,0.675077,-0.998534,-0.448239,0.447760,0.553032
"2018-06-07 01:04:36.831 +0000",1528333476.830799,1.104748,-0.754806,0.913304,0.650721,0.685147,-0.327316,0.000000,0.000000,0.000000,-1,0.747897,0.931953,-1.131780,-0.117975,0.106280,0.775833
"2018-06-07 01:04:36.841 +0000",1528333476.840873,1.107724,-0.763160,0.901375,0.646549,0.691208,-0.322810,0.000000,0.000000,0.000000,-1,0.246476,1.158789,-1.106308,0.115368,-0.153763,1.108424
"2018-06-07 01:04:36.851 +0000",1528333476.850947,1.118828,-0.773569,0.899120,0.643585,0.698693,-0.312451,0.000000,0.000000,0.000000,-1,-0.514103,1.261467,-0.964434,0.149002,-0.311562,1.139585
"2018-06-07 01:04:36.861 +0000",1528333476.861021,1.135641,-0.787307,0.907078,0.639982,0.708455,-0.297512,0.000000,0.000000,0.000000,-1,-1.265422,1.049988,-1.032169,-0.060469,-0.359655,1.178921
"2018-06-07 01:04:36.871 +0000",1528333476.871095,1.155078,-0.804858,0.920653,0.634170,0.720733,-0.279952,0.000000,0.000000,0.000000,-1,-1.635573,0.992755,-1.242315,-0.340957,-0.297835,1.175933
"2018-06-07 01:04:36.881 +0000",1528333476.881169,1.179491,-0.822788,0.935037,0.628767,0.733045,-0.259418,0.000000,0.000000,0.000000,-1,-1.568894,1.561584,-1.241888,-0.264280,-0.278119,0.872486
"2018-06-07 01:04:36.891 +0000",1528333476.891243,1.211049,-0.838625,0.948510,0.625693,0.743725,-0.235332,0.000000,0.000000,0.000000,-1,-1.362877,2.331029,-1.083078,-0.057365,-0.208980,0.489513
"2018-06-07 01:04:36.901 +0000",1528333476.901317,1.247566,-0.851759,0.960663,0.624551,0.752440,-0.209211,0.000000,0.000000,0.000000,-1,-1.128240,2.816226,-0.923008,0.107184,0.058442,0.232450
"2018-06-07 01:04:36.911 +0000",1528333476.911390,1.284688,-0.861844,0.970850,0.624574,0.759044,-0.183737,0.000000,0.000000,0.000000,-1,-0.868684,2.925703,-0.679113,0.316954,0.210942,0.052618
"2018-06-07 01:04:36.921 +0000",1528333476.921464,1.319908,-0.866749,0.979950,0.627043,0.762228,-0.160704,0.000000,0.000000,0.000000,-1,-0.643383,2.756280,-0.179946,0.553103,0.225641,0.002073
"2018-06-07 01:04:36.932 +0000",1528333476.931538,1.352477,-0.866009,0.988327,0.632493,0.761749,-0.140322,0.000000,0.000000,0.000000,-1,-0.461048,2.561529,0.309564,0.578460,0.198898,0.047991
"2018-06-07 01:04:36.942 +0000",1528333476.941612,1.382951,-0.861199,0.994429,0.640067,0.758624,-0.121668,0.000000,0.000000,0.000000,-1,-0.227017,2.571912,0.607011,0.385949,0.139981,0.053385
"2018-06-07 01:04:36.952 +0000",1528333476.951686,1.410101,-0.854668,0.997097,0.648011,0.754353,-0.105038,0.000000,0.000000,0.000000,-1,-0.013163,2.441578,0.677135,0.137649,0.015361,0.020184
"2018-06-07 01:04:36.962 +0000",1528333476.961760,1.433353,-0.848121,0.998129,0.655156,0.750039,-0.090618,0.000000,0.000000,0.000000,-1,0.031555,2.159759,0.633187,-0.092305,-0.095391,0.098309
"2018-06-07 01:04:36.972 +0000",1528333476.971834,1.453858,-0.842934,0.999540,0.660731,0.746598,-0.077619,0.000000,0.000000,0.000000,-1,-0.052054,1.853891,0.479747,-0.260783,-0.166840,0.203870
"2018-06-07 01:04:36.982 +0000",1528333476.981908,1.472096,-0.839174,1.001671,0.664826,0.744091,-0.065833,0.000000,0.000000,0.000000,-1,-0.110733,1.597365,0.356512,-0.282090,-0.209667,0.225775
"2018-06-07 01:04:36.992 +0000",1528333476.991982,1.489706,-0.837137,1.004924,0.667392,0.742729,-0.054238,0.000000,0.000000,0.000000,-1,-0.133814,1.406778,0.239841,-0.211429,-0.215217,0.174111
"2018-06-07 01:04:37.002 +0000",1528333477.002056,1.504888,-0.835573,1.007540,0.669297,0.741681,-0.044177,0.000000,0.000000,0.000000,-1,-0.180232,1.290687,0.143877,-0.124039,-0.183194,0.107363
"2018-06-07 01:04:37.012 +0000",1528333477.012129,1.520695,-0.835088,1.011539,0.670270,0.741356,-0.033610,0.000000,0.000000,0.000000,-1,-0.295990,1.276539,0.037612,-0.079938,-0.130592,0.027659
"2018-06-07 01:04:37.022 +0000",1528333477.022203,1.537872,-0.835623,1.017399,0.670352,0.741714,-0.022079,0.000000,0.000000,0.000000,-1,-0.417093,1.273309,-0.057853,-0.059802,-0.055573,-0.046342
"2018-06-07 01:04:37.032 +0000",1528333477.032277,1.556549,-0.837290,1.025048,0.669411,0.742831,-0.009538,0.000000,0.000000,0.000000,-1,-0.452162,1.215350,-0.134312,-0.018532,0.006833,-0.099593
"2018-06-07 01:04:37.042 +0000",1528333477.042351,1.572132,-0.839259,1.031089,0.668014,0.744148,0.000893,0.000000,0.000000,0.000000,-1,-0.380023,1.057780,-0.208079,0.014420,0.024666,-0.117424
"2018-06-07 01:04:37.052 +0000",1528333477.052425,1.584962,-0.841338,1.035430,0.666399,0.745536,0.009441,0.000000,0.000000,0.000000,-1,-0.253905,0.928569,-0.202290,0.065398,-0.030280,-0.104106
"2018-06-07 01:04:37.062 +0000",1528333477.062499,1.596832,-0.843064,1.038207,0.664952,0.746685,0.017316,0.000000,0.000000,0.000000,-1,-0.159736,1.013206,-0.165687,0.093806,-0.100856,-0.082365
"2018-06-07 01:04:37.073 +0000",1528333477.072573,1.611994,-0.844865,1.041589,0.663269,0.747881,0.027340,0.000000,0.000000,0.000000,-1,-0.169542,1.265604,-0.150947,0.071335,-0.124102,-0.082104
"2018-06-07 01:04:37.083 +0000",1528333477.082647,1.628926,-0.846506,1.045184,0.661484,0.748970,0.038495,0.000000,0.000000,0.000000,-1,-0.251383,1.448846,-0.184648,0.026962,-0.125023,-0.111265
"2018-06-07 01:04:37.093 +0000",1528333477.092721,1.647104,-0.848606,1.050102,0.659106,0.750359,0.050393,0.000000,0.000000,0.000000,-1,-0.323311,1.413796,-0.251275,-0.014391,-0.101434,-0.142052
"2018-06-07 01:04:37.103 +0000",1528333477.102795,1.663667,-0.851849,1.055606,0.655754,0.752499,0.061076,0.000000,0.000000,0.000000,-1,-0.330399,1.165171,-0.391816,-0.039513,-0.056378,-0.174251
"2018-06-07 01:04:37.113 +0000",1528333477.112868,1.679433,-0.856902,1.062186,0.650921,0.755818,0.070994,0.000000,0.000000,0.000000,-1,-0.325869,0.995693,-0.550439,-0.039715,-0.005940,-0.141154
"2018-06-07 01:04:37.123 +0000",1528333477.122942,1.694494,-0.863166,1.068547,0.645067,0.759905,0.080203,0.000000,0.000000,0.000000,-1,-0.343643,1.036900,-0.703020,-0.015062,0.055693,-0.040270
"2018-06-07 01:04:37.133 +0000",1528333477.133016,1.711123,-0.870800,1.075869,0.637882,0.764844,0.090104,0.000000,0.000000,0.000000,-1,-0.373089,1.107666,-0.843655,0.013959,0.116076,-0.022614
"2018-06-07 01:04:37.143 +0000",1528333477.143090,1.727844,-0.879183,1.083668,0.629931,0.770218,0.099751,0.000000,0.000000,0.000000,-1,-0.362013,1.036617,-0.909501,0.086256,0.113541,-0.127110
"2018-06-07 01:04:37.153 +0000",1528333477.153164,1.743848,-0.888339,1.092074,0.621281,0.776025,0.108600,0.000000,0.000000,0.000000,-1,-0.302610,0.843794,-0.961829,0.159023,0.064780,-0.239643
"2018-06-07 01:04:37.163 +0000",1528333477.163238,1.756380,-0.897852,1.098843,0.612588,0.781990,0.115010,0.000000,0.000000,0.000000,-1,-0.228506,0.689451,-1.018382,0.228340,-0.007850,-0.256337
"2018-06-07 01:04:37.173 +0000",1528333477.173312,1.768553,-0.907751,1.105265,0.603522,0.788122,0.120931,0.000000,0.000000,0.000000,-1,-0.194777,0.730247,-1.038777,0.322809,-0.070760,-0.185460
"2018-06-07 01:04:37.183 +0000",1528333477.183386,1.782065,-0.917170,1.112057,0.594548,0.793884,0.127512,0.000000,0.000000,0.000000,-1,-0.220559,0.827615,-0.976048,0.430614,-0.105499,-0.154856
"2018-06-07 01:04:37.193 +0000",1528333477.193460,1.796539,-0.925522,1.119404,0.586157,0.798935,0.134615,0.000000,0.000000,0.000000,-1,-0.178542,0.792014,-0.835338,0.522745,-0.136780,-0.236895
"2018-06-07 01:04:37.204 +0000",1528333477.203534,1.805977,-0.932480,1.123106,0.579441,0.803100,0.138843,0.000000,0.000000,0.000000,-1,-0.003024,0.587699,-0.687895,0.568569,-0.160583,-0.385761
"2018-06-07 01:04:37.214 +0000",1528333477.213607,1.809748,-0.939236,1.122356,0.573629,0.807107,0.139739,0.000000,0.000000,0.000000,-1,0.274045,0.392845,-0.635314,0.550212,-0.184701,-0.497604
"2018-06-07 01:04:37.224 +0000",1528333477.223681,1.808555,-0.946697,1.116785,0.567926,0.811490,0.137632,0.000000,0.000000,0.000000,-1,0.557758,0.314620,-0.641570,0.507178,-0.197705,-0.475325
"2018-06-07 01:04:37.234 +0000",1528333477.233755,1.805382,-0.954347,1.108452,0.562305,0.815936,0.134383,0.000000,0.000000,0.000000,-1,0.726345,0.331282,-0.576293,0.528607,-0.200473,-0.371993
"2018-06-07 01:04:37.244 +0000",1528333477.243829,1.799685,-0.960597,1.097430,0.558084,0.819534,0.130017,0.000000,0.000000,0.000000,-1,0.758706,0.317510,-0.411834,0.560904,-0.196746,-0.298978
"2018-06-07 01:04:37.254 +0000",1528333477.253903,1.792279,-0.965078,1.085582,0.555443,0.822093,0.125073,0.000000,0.000000,0.000000,-1,0.752295,0.192748,-0.245457,0.543388,-0.202480,-0.351834
"2018-06-07 01:04:37.264 +0000",1528333477.263977,1.782052,-0.968515,1.072561,0.553927,0.824045,0.118793,0.000000,0.000000,0.000000,-1,0.814816,-0.007248,-0.155828,0.452908,-0.193491,-0.465121
"2018-06-07 01:04:37.274 +0000",1528333477.274051,1.765697,-0.971590,1.056261,0.553308,0.825783,0.109227,0.000000,0.000000,0.000000,-1,1.082534,-0.451395,-0.085665,0.418067,-0.192742,-0.567967
"2018-06-07 01:04:37.284 +0000",1528333477.284125,1.735287,-0.974123,1.031232,0.554308,0.827209,0.092010,0.000000,0.000000,0.000000,-1,1.534926,-1.144453,0.039285,0.556670,-0.198868,-0.548629
"2018-06-07 01:04:37.294 +0000",1528333477.294199,1.693628,-0.973614,1.000828,0.558077,0.826923,0.068896,0.000000,0.000000,0.000000,-1,1.666110,-1.785625,0.406066,0.869414,-0.123447,-0.262729
"2018-06-07 01:04:37.304 +0000",1528333477.304273,1.651271,-0.966952,0.973428,0.565972,0.823159,0.045645,0.000000,0.000000,0.000000,-1,1.385898,-1.977486,0.947199,1.144630,-0.008889,0.076196
"2018-06-07 01:04:37.314 +0000",1528333477.314346,1.612741,-0.954716,0.950372,0.577331,0.816149,0.024230,0.000000,0.000000,0.000000,-1,1.280843,-2.004771,1.363635,0.958329,-0.033557,0.083100
"2018-06-07 01:04:37.324 +0000",1528333477.324420,1.571257,-0.938546,0.926579,0.590960,0.806700,0.000272,0.000000,0.000000,0.000000,-1,1.370775,-2.271682,1.721918,0.551268,-0.152479,-0.144788
"2018-06-07 01:04:37.334 +0000",1528333477.334494,1.528978,-0.918798,0.903390,0.606244,0.794873,-0.025367,0.000000,0.000000,0.000000,-1,1.428686,-2.356063,1.987224,0.165378,-0.144741,-0.162545
"2018-06-07 01:04:37.345 +0000",1528333477.344568,1.488508,-0.896950,0.881887,0.621883,0.781427,-0.051289,0.000000,0.000000,0.000000,-1,1.450842,-2.327964,2.107727,-0.169384,0.013586,-0.143535
"2018-06-07 01:04:37.355 +0000",1528333477.354642,1.450213,-0.873230,0.862133,0.637689,0.766408,-0.077270,0.000000,0.000000,0.000000,-1,1.542687,-2.311552,2.181784,-0.221719,0.257884,-0.275087
"2018-06-07 01:04:37.365 +0000",1528333477.364716,1.411880,-0.849483,0.841076,0.652049,0.750939,-0.104503,0.000000,0.000000,0.000000,-1,1.725807,-2.170258,2.117237,-0.133327,0.569847,-0.309407
"2018-06-07 01:04:37.375 +0000",1528333477.374790,1.376112,-0.826498,0.818245,0.664657,0.735563,-0.131058,0.000000,0.000000,0.000000,-1,1.951656,-1.743985,1.924344,-0.034606,0.898150,-0.162399
"2018-06-07 01:04:37.385 +0000",1528333477.384864,1.344420,-0.804692,0.793415,0.675642,0.720617,-0.155617,0.000000,0.000000,0.000000,-1,2.158640,-1.224383,1.714555,0.084703,1.080927,0.028740
"2018-06-07 01:04:37.395 +0000",1528333477.394938,1.317314,-0.784059,0.766964,0.685426,0.706159,-0.177563,0.000000,0.000000,0.000000,-1,2.344922,-0.755196,1.471322,0.131667,1.063067,0.168407
"2018-06-07 01:04:37.405 +0000",1528333477.405011,1.292344,-0.765292,0.740641,0.693400,0.692748,-0.198229,0.000000,0.000000,0.000000,-1,2.249810,-0.645896,1.259955,0.075063,0.980775,0.234651
"2018-06-07 01:04:37.415 +0000",1528333477.415085,1.268901,-0.748258,0.718754,0.699730,0.680363,-0.217906,0.000000,0.000000,0.000000,-1,1.880173,-0.958235,1.151253,0.028450,0.808788,0.218333
"2018-06-07 01:04:37.425 +0000",1528333477.425159,1.243697,-0.733658,0.706906,0.703348,0.669591,-0.238637,0.000000,0.000000,0.000000,-1,1.023507,-2.007638,1.091002,-0.017236,0.658442,0.376698
"2018-06-07 01:04:37.435 +0000",1528333477.435233,1.220186,-0.723099,0.706140,0.704144,0.661711,-0.257520,0.000000,0.000000,0.000000,-1,0.289730,-2.323008,0.940099,-0.139172,0.564149,0.699720
"2018-06-07 01:04:37.445 +0000",1528333477.445307,1.200819,-0.716079,0.710381,0.703339,0.656432,-0.272781,0.000000,0.000000,0.000000,-1,-0.144438,-2.164017,0.696308,-0.108689,0.345750,0.570648
"2018-06-07 01:04:37.455 +0000",1528333477.455381,1.182197,-0.712586,0.716748,0.700256,0.653792,-0.286697,0.000000,0.000000,0.000000,-1,-0.342941,-2.324873,0.441367,-0.048126,0.128159,0.266861
"2018-06-07 01:04:37.465 +0000",1528333477.465455,1.158931,-0.710496,0.721308,0.694647,0.652210,-0.303457,0.000000,0.000000,0.000000,-1,-0.174463,-2.717904,0.297853,0.041849,0.010266,-0.029582
"2018-06-07 01:04:37.476 +0000",1528333477.475529,1.129927,-0.707712,0.722785,0.687194,0.650097,-0.324248,0.000000,0.000000,0.000000,-1,0.134374,-3.092656,0.339081,0.111634,-0.049038,-0.110887
"2018-06-07 01:04:37.486 +0000",1528333477.485603,1.098411,-0.701228,0.721796,0.680375,0.645156,-0.347652,0.000000,0.000000,0.000000,-1,0.422897,-3.003110,0.643089,0.178161,-0.092422,0.039577
"2018-06-07 01:04:37.496 +0000",1528333477.495677,1.071168,-0.689693,0.722604,0.677140,0.636301,-0.369596,0.000000,0.000000,0.000000,-1,0.476224,-2.663802,1.179625,0.231719,-0.159051,0.234022
"2018-06-07 01:04:37.506 +0000",1528333477.505750,1.050326,-0.674418,0.727680,0.677644,0.624442,-0.388417,0.000000,0.000000,0.000000,-1,0.369692,-2.293725,1.602598,0.127608,-0.182762,0.430623
"2018-06-07 01:04:37.516 +0000",1528333477.515824,1.035232,-0.658499,0.736428,0.680168,0.611930,-0.403623,0.000000,0.000000,0.000000,-1,0.221487,-2.038856,1.722000,-0.080864,-0.148704,0.513989
"2018-06-07 01:04:37.526 +0000",1528333477.525898,1.020789,-0.643922,0.745481,0.681800,0.600336,-0.418022,0.000000,0.000000,0.000000,-1,0.101924,-1.984701,1.555706,-0.290260,-0.101435,0.505455
"2018-06-07 01:04:37.536 +0000",1528333477.535972,1.005198,-0.632301,0.754686,0.681045,0.591002,-0.432311,0.000000,0.000000,0.000000,-1,-0.045132,-2.125654,1.300705,-0.455337,-0.066603,0.521605
"2018-06-07 01:04:37.546 +0000",1528333477.546046,0.988531,-0.623539,0.763653,0.678044,0.583912,-0.446432,0.000000,0.000000,0.000000,-1,-0.165150,-2.190895,1.071678,-0.579518,-0.054233,0.564886
"2018-06-07 01:04:37.556 +0000",1528333477.556120,0.973233,-0.617635,0.773591,0.673974,0.579109,-0.458684,0.000000,0.000000,0.000000,-1,-0.286985,-2.147823,0.929021,-0.628182,-0.050788,0.611668
"2018-06-07 01:04:37.566 +0000",1528333477.566194,0.958466,-0.612578,0.783090,0.669515,0.574978,-0.470263,0.000000,0.000000,0.000000,-1,-0.366197,-1.955500,0.825425,-0.663000,-0.036435,0.640719
"2018-06-07 01:04:37.576 +0000",1528333477.576268,0.946014,-0.608916,0.792671,0.665311,0.571979,-0.479791,0.000000,0.000000,0.000000,-1,-0.448602,-1.729159,0.723010,-0.677304,-0.029880,0.632349
"2018-06-07 01:04:37.586 +0000",1528333477.586342,0.936055,-0.606673,0.802618,0.661532,0.570137,-0.487153,0.000000,0.000000,0.000000,-1,-0.541623,-1.479845,0.632518,-0.654284,-0.032601,0.625428
"2018-06-07 01:04:37.596 +0000",1528333477.596415,0.930241,-0.606937,0.813392,0.658567,0.570354,-0.490901,0.000000,0.000000,0.000000,-1,-0.636731,-1.194283,0.535683,-0.645216,-0.051860,0.597026
"2018-06-07 01:04:37.606 +0000",1528333477.606489,0.926237,-0.607545,0.823885,0.656319,0.570854,-0.493326,0.000000,0.000000,0.000000,-1,-0.753909,-0.937347,0.444193,-0.640053,-0.076820,0.560342
"2018-06-07 01:04:37.617 +0000",1528333477.616563,0.924724,-0.609570,0.835078,0.654647,0.572515,-0.493621,0.000000,0.000000,0.000000,-1,-0.879570,-0.734297,0.369777,-0.614807,-0.103841,0.531188
"2018-06-07 01:04:37.627 +0000",1528333477.626637,0.925520,-0.612940,0.847074,0.653495,0.575274,-0.491937,0.000000,0.000000,0.000000,-1,-1.015776,-0.565347,0.304966,-0.600288,-0.147326,0.470559
"2018-06-07 01:04:37.637 +0000",1528333477.636711,0.929298,-0.618767,0.860495,0.652652,0.580032,-0.487450,0.000000,0.000000,0.000000,-1,-1.162290,-0.410598,0.216473,-0.623996,-0.202483,0.392311
"2018-06-07 01:04:37.647 +0000",1528333477.646785,0.934637,-0.625816,0.874237,0.651940,0.585759,-0.481517,0.000000,0.000000,0.000000,-1,-1.359741,-0.207375,0.052943,-0.686929,-0.258366,0.318737
"2018-06-07 01:04:37.657 +0000",1528333477.656859,0.943580,-0.636104,0.889002,0.651306,0.594066,-0.472106,0.000000,0.000000,0.000000,-1,-1.629165,0.110149,-0.189688,-0.757340,-0.278758,0.284011
"2018-06-07 01:04:37.667 +0000",1528333477.666933,0.957188,-0.650399,0.904933,0.650660,0.605504,-0.458262,0.000000,0.000000,0.000000,-1,-1.928617,0.501412,-0.497650,-0.796717,-0.267812,0.217646
"2018-06-07 01:04:37.677 +0000",1528333477.677007,0.976173,-0.669474,0.922367,0.649555,0.620574,-0.439277,0.000000,0.000000,0.000000,-1,-2.192256,0.881848,-0.817557,-0.752735,-0.248671,0.065711
"2018-06-07 01:04:37.687 +0000",1528333477.687081,0.998140,-0.691136,0.939306,0.647596,0.637413,-0.417520,0.000000,0.000000,0.000000,-1,-2.307685,1.166104,-1.140235,-0.640669,-0.234474,-0.162589
"2018-06-07 01:04:37.697 +0000",1528333477.697154,1.022855,-0.714685,0.956548,0.644722,0.655379,-0.393458,0.000000,0.000000,0.000000,-1,-2.349537,1.414873,-1.328729,-0.360985,-0.237899,-0.312108
"2018-06-07 01:04:37.707 +0000",1528333477.707228,1.049206,-0.738045,0.974434,0.641413,0.672843,-0.368604,0.000000,0.000000,0.000000,-1,-2.294144,1.434647,-1.295454,0.026555,-0.173316,-0.470019
"2018-06-07 01:04:37.717 +0000",1528333477.717302,1.074355,-0.759113,0.990644,0.637872,0.688278,-0.345529,0.000000,0.000000,0.000000,-1,-1.867476,1.324455,-1.175203,0.473853,0.030105,-0.841498
"2018-06-07 01:04:37.727 +0000",1528333477.727376,1.092843,-0.774509,1.002143,0.634666,0.699365,-0.328764,0.000000,0.000000,0.000000,-1,-1.304344,0.932851,-0.873225,0.914971,0.342612,-1.275194
"2018-06-07 01:04:37.737 +0000",1528333477.737450,1.105777,-0.783612,1.011187,0.633147,0.705843,-0.317660,0.000000,0.000000,0.000000,-1,-0.891804,0.564203,-0.385823,1.371506,0.772108,-1.276181
"2018-06-07 01:04:37.748 +0000",1528333477.747524,1.115761,-0.786764,1.020954,0.634286,0.708072,-0.310344,0.000000,0.000000,0.000000,-1,-0.709675,0.232048,0.147389,1.578147,1.057416,-1.030858
"2018-06-07 01:04:37.758 +0000",1528333477.757598,1.123274,-0.786043,1.031280,0.637060,0.707563,-0.305790,0.000000,0.000000,0.000000,-1,-0.473931,-0.114737,0.539526,1.248408,0.794055,-0.797191
"2018-06-07 01:04:37.768 +0000",1528333477.767672,1.124933,-0.780029,1.039451,0.641394,0.703300,-0.306563,0.000000,0.000000,0.000000,-1,-0.188246,-0.509396,0.862569,0.649972,0.340905,-0.582048
"2018-06-07 01:04:37.778 +0000",1528333477.777746,1.121580,-0.770445,1.045222,0.646405,0.696454,-0.311624,0.000000,0.000000,0.000000,-1,0.122257,-0.783906,1.084793,0.127628,0.138003,-0.441855
"2018-06-07 01:04:37.788 +0000",1528333477.787819,1.116878,-0.758786,1.048673,0.652186,0.688041,-0.318200,0.000000,0.000000,0.000000,-1,0.326411,-0.617850,1.150423,-0.306696,-0.036948,-0.417777
"2018-06-07 01:04:37.798 +0000",1528333477.797893,1.117367,-0.747858,1.048641,0.659061,0.680070,-0.321155,0.000000,0.000000,0.000000,-1,0.635618,0.303640,0.983519,-0.675190,-0.054963,-0.396634
"2018-06-07 01:04:37.808 +0000",1528333477.807967,1.123376,-0.739514,1.044751,0.666072,0.673929,-0.319632,0.000000,0.000000,0.000000,-1,0.543277,0.938893,0.483253,-0.851359,0.346350,-0.004739
"2018-06-07 01:04:37.818 +0000",1528333477.818041,1.130768,-0.738414,1.040648,0.669087,0.673116,-0.315016,0.000000,0.000000,0.000000,-1,0.282822,1.025622,-0.215068,-0.844364,0.858958,0.199568
"2018-06-07 01:04:37.828 +0000",1528333477.828115,1.136238,-0.743355,1.030715,0.667775,0.676762,-0.309947,0.000000,0.000000,0.000000,-1,0.540016,1.293826,-0.914046,-0.853367,1.121013,0.131542
"2018-06-07 01:04:37.838 +0000",1528333477.838189,1.138897,-0.752101,1.014110,0.663196,0.683175,-0.305681,0.000000,0.000000,0.000000,-1,0.884723,1.315809,-1.215952,-0.713046,0.943534,0.378481
"2018-06-07 01:04:37.848 +0000",1528333477.848263,1.136726,-0.758908,0.995637,0.658296,0.688130,-0.305157,0.000000,0.000000,0.000000,-1,0.914943,0.975277,-1.142792,-0.536256,0.579586,0.429639
"2018-06-07 01:04:37.858 +0000",1528333477.858337,1.135419,-0.765305,0.978349,0.653892,0.692757,-0.304155,0.000000,0.000000,0.000000,-1,0.841968,1.117584,-1.094883,-0.289634,0.209755,0.560686
"2018-06-07 01:04:37.868 +0000",1528333477.868411,1.138035,-0.772109,0.963076,0.650392,0.697647,-0.300460,0.000000,0.000000,0.000000,-1,0.636608,1.368236,-1.054960,-0.060762,-0.038437,0.903075
"2018-06-07 01:04:37.878 +0000",1528333477.878485,1.146871,-0.781141,0.954367,0.647251,0.704090,-0.292097,0.000000,0.000000,0.000000,-1,0.159501,1.452966,-0.895501,0.084774,-0.187946,1.070997
"2018-06-07 01:04:37.889 +0000",1528333477.888558,1.159786,-0.789633,0.953540,0.645465,0.710095,-0.281315,0.000000,0.000000,0.000000,-1,-0.447291,1.260857,-0.774198,0.086377,-0.306866,1.006748
"2018-06-07 01:04:37.899 +0000",1528333477.898632,1.173490,-0.801296,0.960877,0.641578,0.718259,-0.269220,0.000000,0.000000,0.000000,-1,-1.063239,0.707579,-0.920685,-0.098548,-0.351590,1.017572
"2018-06-07 01:04:37.909 +0000",1528333477.908706,1.186857,-0.816958,0.972161,0.634610,0.729067,-0.256375,0.000000,0.000000,0.000000,-1,-1.366458,0.489491,-1.209973,-0.355344,-0.293657,1.029996
"2018-06-07 01:04:37.919 +0000",1528333477.918780,1.203312,-0.833429,0.985107,0.627450,0.740241,-0.241551,0.000000,0.000000,0.000000,-1,-1.409159,0.796533,-1.158427,-0.269402,-0.256919,0.855381
"2018-06-07 01:04:37.929 +0000",1528333477.928854,1.227632,-0.846870,0.999697,0.623712,0.749211,-0.222853,0.000000,0.000000,0.000000,-1,-1.356735,1.543976,-0.828301,0.026740,-0.214070,0.628523
"2018-06-07 01:04:37.939 +0000",1528333477.938928,1.261891,-0.856954,1.015801,0.623749,0.755852,-0.199052,0.000000,0.000000,0.000000,-1,-1.303004,2.410184,-0.546237,0.164657,0.019142,0.472459
"2018-06-07 01:04:37.949 +0000",1528333477.949002,1.303922,-0.863954,1.032342,0.626444,0.760416,-0.171267,0.000000,0.000000,0.000000,-1,-1.192120,3.068103,-0.295027,0.280935,0.196920,0.335894
"2018-06-07 01:04:37.959 +0000",1528333477.959076,1.349169,-0.867188,1.048572,0.631147,0.762513,-0.142215,0.000000,0.000000,0.000000,-1,-1.055130,3.304249,0.028040,0.430194,0.273727,0.230228
"2018-06-07 01:04:37.969 +0000",1528333477.969149,1.394125,-0.865966,1.063139,0.637818,0.761721,-0.113871,0.000000,0.000000,0.000000,-1,-0.827983,3.369212,0.394503,0.572739,0.318311,0.093729
"2018-06-07 01:04:37.979 +0000",1528333477.979223,1.435278,-0.861290,1.073349,0.645484,0.758684,-0.088015,0.000000,0.000000,0.000000,-1,-0.486011,3.282583,0.598916,0.455301,0.260130,-0.062803
"2018-06-07 01:04:37.989 +0000",1528333477.989297,1.469683,-0.854863,1.077350,0.652967,0.754481,-0.066249,0.000000,0.000000,0.000000,-1,-0.081023,3.047325,0.685507,0.177233,0.135213,-0.139988
"2018-06-07 01:04:37.999 +0000",1528333477.999371,1.496619,-0.847544,1.075505,0.660004,0.749658,-0.049047,0.000000,0.000000,0.000000,-1,0.260414,2.725406,0.714983,-0.046158,0.012885,-0.140177
"2018-06-07 01:04:38.009 +0000",1528333478.009445,1.516886,-0.840770,1.070242,0.665919,0.745157,-0.035935,0.000000,0.000000,0.000000,-1,0.415940,2.282724,0.622985,-0.267084,-0.055764,-0.059204
"2018-06-07 01:04:38.020 +0000",1528333478.019519,1.531556,-0.834974,1.063698,0.670678,0.741279,-0.026331,0.000000,0.000000,0.000000,-1,0.469604,1.824393,0.530099,-0.344537,-0.108024,0.026850
"2018-06-07 01:04:38.030 +0000",1528333478.029593,1.542101,-0.830381,1.057282,0.674314,0.738189,-0.019355,0.000000,0.000000,0.000000,-1,0.421537,1.421878,0.410717,-0.337721,-0.154509,0.064307
"2018-06-07 01:04:38.040 +0000",1528333478.039667,1.552970,-0.828201,1.054343,0.676092,0.736716,-0.012053,0.000000,0.000000,0.000000,-1,0.233025,1.167411,0.234003,-0.299383,-0.151481,0.089278
"2018-06-07 01:04:38.050 +0000",1528333478.049741,1.564382,-0.827823,1.053957,0.676464,0.736460,-0.004339,0.000000,0.000000,0.000000,-1,-0.042255,1.186413,-0.029920,-0.268902,-0.083888,0.089010
"2018-06-07 01:04:38.060 +0000",1528333478.059815,1.579836,-0.829646,1.056972,0.675107,0.737692,0.006103,0.000000,0.000000,0.000000,-1,-0.243650,1.354619,-0.222586,-0.184903,-0.004065,0.046250
"2018-06-07 01:04:38.070 +0000",1528333478.069888,1.596926,-0.832525,1.061169,0.672778,0.739633,0.017583,0.000000,0.000000,0.000000,-1,-0.269252,1.384561,-0.311719,-0.040515,0.029913,-0.025716
"2018-06-07 01:04:38.080 +0000",1528333478.079962,1.613945,-0.836384,1.065157,0.669524,0.742225,0.028907,0.000000,0.000000,0.000000,-1,-0.136739,1.296057,-0.323036,0.084214,0.005288,-0.092765
"2018-06-07 01:04:38.090 +0000",1528333478.090036,1.626202,-0.839824,1.065617,0.666566,0.744526,0.036970,0.000000,0.000000,0.000000,-1,0.022245,1.141843,-0.353967,0.150633,-0.072559,-0.136670
"2018-06-07 01:04:38.100 +0000",1528333478.100110,1.636103,-0.843577,1.064488,0.663375,0.747026,0.043384,0.000000,0.000000,0.000000,-1,0.111703,1.052126,-0.366265,0.165482,-0.137986,-0.136173
"2018-06-07 01:04:38.110 +0000",1528333478.110184,1.646365,-0.847103,1.063485,0.660264,0.749365,0.049990,0.000000,0.000000,0.000000,-1,0.074638,1.117757,-0.334795,0.177962,-0.186423,-0.093691
"2018-06-07 01:04:38.120 +0000",1528333478.120258,1.660575,-0.850684,1.065253,0.656810,0.751731,0.059127,0.000000,0.000000,0.000000,-1,-0.043368,1.239144,-0.301903,0.169377,-0.201133,-0.074233
"2018-06-07 01:04:38.130 +0000",1528333478.130332,1.675226,-0.853593,1.067562,0.653696,0.753647,0.068514,0.000000,0.000000,0.000000,-1,-0.145254,1.283890,-0.306917,0.148764,-0.182404,-0.103716
"2018-06-07 01:04:38.140 +0000",1528333478.140406,1.690320,-0.856749,1.070945,0.650222,0.755717,0.078089,0.000000,0.000000,0.000000,-1,-0.191098,1.224659,-0.347855,0.120240,-0.145274,-0.156931
"2018-06-07 01:04:38.150 +0000",1528333478.150479,1.704608,-0.860506,1.074771,0.646222,0.758172,0.086992,0.000000,0.000000,0.000000,-1,-0.199907,1.096481,-0.415973,0.103198,-0.101282,-0.180696
"2018-06-07 01:04:38.161 +0000",1528333478.160553,1.719473,-0.865286,1.079819,0.641265,0.761281,0.096050,0.000000,0.000000,0.000000,-1,-0.185624,1.019979,-0.488297,0.102280,-0.053197,-0.147564
"2018-06-07 01:04:38.171 +0000",1528333478.170627,1.732672,-0.870442,1.083989,0.636060,0.764614,0.103872,0.000000,0.000000,0.000000,-1,-0.188149,0.987364,-0.565832,0.098514,-0.004116,-0.090444
"2018-06-07 01:04:38.181 +0000",1528333478.180701,1.746439,-0.876075,1.088907,0.630318,0.768232,0.111864,0.000000,0.000000,0.000000,-1,-0.227691,0.996243,-0.615196,0.114097,0.022509,-0.071321
"2018-06-07 01:04:38.191 +0000",1528333478.190775,1.761135,-0.882029,1.095021,0.624104,0.772030,0.120247,0.000000,0.000000,0.000000,-1,-0.290319,0.982005,-0.664573,0.114086,0.016987,-0.118416
"2018-06-07 01:04:38.201 +0000",1528333478.200849,1.777659,-0.888602,1.103646,0.617052,0.776191,0.129497,0.000000,0.000000,0.000000,-1,-0.350764,0.892032,-0.715252,0.126875,-0.000190,-0.196301
"2018-06-07 01:04:38.211 +0000",1528333478.210923,1.792613,-0.895142,1.112194,0.610082,0.780298,0.137590,0.000000,0.000000,0.000000,-1,-0.390300,0.809752,-0.754124,0.158213,-0.015191,-0.238008
"2018-06-07 01:04:38.221 +0000",1528333478.220997,1.807708,-0.901840,1.121124,0.602842,0.784469,0.145554,0.000000,0.000000,0.000000,-1,-0.380654,0.806589,-0.778895,0.211734,-0.038772,-0.282395
"2018-06-07 01:04:38.231 +0000",1528333478.231071,1.821942,-0.908728,1.129295,0.595460,0.788723,0.152773,0.000000,0.000000,0.000000,-1,-0.292332,0.754165,-0.784628,0.250380,-0.064128,-0.358522
"2018-06-07 01:04:38.241 +0000",1528333478.241144,1.833679,-0.916133,1.135989,0.587970,0.793253,0.158229,0.000000,0.000000,0.000000,-1,-0.086383,0.518641,-0.766423,0.283825,-0.103296,-0.449474
"2018-06-07 01:04:38.251 +0000",1528333478.251218,1.837238,-0.923778,1.137413,0.581536,0.797885,0.158719,0.000000,0.000000,0.000000,-1,0.187969,0.149380,-0.748764,0.334571,-0.165087,-0.487760
"2018-06-07 01:04:38.261 +0000",1528333478.261292,1.834570,-0.931796,1.134026,0.575763,0.802692,0.155494,0.000000,0.000000,0.000000,-1,0.466078,-0.025706,-0.697204,0.417356,-0.207462,-0.397895
"2018-06-07 01:04:38.271 +0000",1528333478.271366,1.829110,-0.939387,1.127518,0.570695,0.807197,0.150787,0.000000,0.000000,0.000000,-1,0.582972,-0.006017,-0.602757,0.564482,-0.225486,-0.245559
"2018-06-07 01:04:38.281 +0000",1528333478.281440,1.826259,-0.945856,1.121487,0.566059,0.810998,0.147837,0.000000,0.000000,0.000000,-1,0.539634,0.225988,-0.458922,0.691006,-0.226922,-0.127619
"2018-06-07 01:04:38.292 +0000",1528333478.291514,1.825977,-0.950243,1.115337,0.562652,0.813557,0.146777,0.000000,0.000000,0.000000,-1,0.424602,0.540021,-0.289945,0.733628,-0.220799,-0.090091
"2018-06-07 01:04:38.302 +0000",1528333478.301588,1.827710,-0.953006,1.109931,0.560221,0.815160,0.147181,0.000000,0.000000,0.000000,-1,0.366772,0.604056,-0.153019,0.656698,-0.202901,-0.232966
"2018-06-07 01:04:38.312 +0000",1528333478.311662,1.826054,-0.954617,1.102294,0.559193,0.816092,0.145922,0.000000,0.000000,0.000000,-1,0.517089,0.383199,-0.004491,0.538662,-0.176688,-0.524355
"2018-06-07 01:04:38.322 +0000",1528333478.321735,1.816636,-0.955803,1.089853,0.559603,0.816777,0.140413,0.000000,0.000000,0.000000,-1,0.853879,-0.074072,0.099896,0.406522,-0.127370,-0.800660
"2018-06-07 01:04:38.332 +0000",1528333478.331809,1.795981,-0.957584,1.069346,0.560965,0.817804,0.128500,0.000000,0.000000,0.000000,-1,1.297579,-0.496547,0.092273,0.282282,-0.073800,-0.902151
"2018-06-07 01:04:38.342 +0000",1528333478.341883,1.762235,-0.960828,1.040273,0.562373,0.819666,0.108995,0.000000,0.000000,0.000000,-1,1.827219,-1.184110,0.005160,0.266408,-0.061518,-0.792268
"2018-06-07 01:04:38.352 +0000",1528333478.351957,1.712577,-0.963763,1.003029,0.564707,0.821344,0.080605,0.000000,0.000000,0.000000,-1,2.190669,-2.132046,0.117739,0.500525,-0.094781,-0.586419
"2018-06-07 01:04:38.362 +0000",1528333478.362031,1.656956,-0.961333,0.966486,0.570302,0.819955,0.049259,0.000000,0.000000,0.000000,-1,1.964662,-2.639730,0.614804,0.876750,-0.128534,-0.179142
"2018-06-07 01:04:38.372 +0000",1528333478.372105,1.606581,-0.951534,0.936713,0.580060,0.814307,0.020766,0.000000,0.000000,0.000000,-1,1.548172,-2.535848,1.221648,0.993945,-0.166785,0.157044
"2018-06-07 01:04:38.382 +0000",1528333478.382179,1.561400,-0.935889,0.911606,0.593075,0.805126,-0.005573,0.000000,0.000000,0.000000,-1,1.433273,-2.466719,1.677110,0.745335,-0.271908,0.105732
"2018-06-07 01:04:38.392 +0000",1528333478.392253,1.517250,-0.915875,0.888117,0.608221,0.793096,-0.032599,0.000000,0.000000,0.000000,-1,1.471704,-2.529501,2.014592,0.393945,-0.292821,-0.022058
"2018-06-07 01:04:38.402 +0000",1528333478.402327,1.476107,-0.893180,0.867193,0.624127,0.779069,-0.059276,0.000000,0.000000,0.000000,-1,1.465383,-2.440038,2.142868,-0.001584,-0.093980,-0.078725
"2018-06-07 01:04:38.412 +0000",1528333478.412400,1.437015,-0.869793,0.847204,0.639219,0.764196,-0.086029,0.000000,0.000000,0.000000,-1,1.550167,-2.323539,2.166677,-0.199598,0.240885,-0.247497
"2018-06-07 01:04:38.422 +0000",1528333478.422473,1.399232,-0.846048,0.825312,0.653212,0.748666,-0.113181,0.000000,0.000000,0.000000,-1,1.853000,-1.993011,2.081969,-0.109008,0.651587,-0.343362
"2018-06-07 01:04:38.433 +0000",1528333478.432548,1.365207,-0.823115,0.800268,0.665619,0.733268,-0.138806,0.000000,0.000000,0.000000,-1,2.113560,-1.378798,1.859425,0.068466,1.105981,-0.184055
"2018-06-07 01:04:38.443 +0000",1528333478.442621,1.338606,-0.801529,0.774532,0.676940,0.718421,-0.160066,0.000000,0.000000,0.000000,-1,2.254128,-0.514636,1.638959,0.258683,1.340829,0.097123
"2018-06-07 01:04:38.453 +0000",1528333478.452695,1.320304,-0.782004,0.746690,0.687358,0.704703,-0.175872,0.000000,0.000000,0.000000,-1,2.345951,0.288222,1.345281,0.254995,1.394113,0.367431
"2018-06-07 01:04:38.463 +0000",1528333478.462770,1.304522,-0.764967,0.721838,0.695980,0.692513,-0.189829,0.000000,0.000000,0.000000,-1,2.043141,0.041229,1.143035,0.195011,1.191337,0.343683
"2018-06-07 01:04:38.473 +0000",1528333478.472844,1.286389,-0.750522,0.705056,0.701953,0.682021,-0.205203,0.000000,0.000000,0.000000,-1,1.348623,-0.937213,1.022383,0.096204,0.808275,0.278522
"2018-06-07 01:04:38.483 +0000",1528333478.482918,1.266981,-0.739661,0.698974,0.704865,0.674037,-0.220991,0.000000,0.000000,0.000000,-1,0.570134,-1.668731,0.863918,-0.068848,0.501286,0.460828
