timestamp,timeIntervalSince1970,attitude.roll,attitude.pitch,attitude.yaw,gravity.x,gravity.y,gravity.z,magneticField.x,magneticField.y,magneticField.z,magneticField.accuracy,rotationRate.x,rotationRate.y,rotationRate.z,userAcceleration.x,userAcceleration.y,userAcceleration.z
"2018-06-07 01:06:46.751 +0000",1528333606.750678,-0.164148,0.264218,0.043230,-0.157741,-0.261154,-0.952321,0.000000,0.000000,0.000000,-1,-1.618492,0.082251,-0.071461,0.024593,0.123169,-0.100978
"2018-06-07 01:06:46.761 +0000",1528333606.760752,-0.161900,0.249667,0.040634,-0.156196,-0.247082,-0.956323,0.000000,0.000000,0.000000,-1,-1.408134,0.204337,0.012313,0.064918,0.143917,-0.154227
"2018-06-07 01:06:46.771 +0000",1528333606.770826,-0.156108,0.237033,0.039628,-0.151128,-0.234819,-0.960219,0.000000,0.000000,0.000000,-1,-1.213123,0.673106,0.136929,0.129185,0.200365,-0.108903
"2018-06-07 01:06:46.781 +0000",1528333606.780900,-0.147600,0.225162,0.040217,-0.143353,-0.223264,-0.964159,0.000000,0.000000,0.000000,-1,-1.145016,0.896693,0.267577,0.057827,0.190915,-0.123365
"2018-06-07 01:06:46.791 +0000",1528333606.790974,-0.137612,0.213486,0.042149,-0.134064,-0.211868,-0.968059,0.000000,0.000000,0.000000,-1,-1.114471,1.091756,0.369185,0.064942,0.178970,-0.123799
"2018-06-07 01:06:46.801 +0000",1528333606.801048,-0.123386,0.201553,0.044641,-0.120582,-0.200191,-0.972308,0.000000,0.000000,0.000000,-1,-1.165634,1.622802,0.400965,0.083777,0.194668,-0.014890
"2018-06-07 01:06:46.811 +0000",1528333606.811122,-0.100884,0.187325,0.047156,-0.098951,-0.186231,-0.977510,0.000000,0.000000,0.000000,-1,-1.475204,2.530945,0.389257,0.061842,0.197385,0.224932
"2018-06-07 01:06:46.821 +0000",1528333606.821196,-0.070449,0.167979,0.048135,-0.069400,-0.167190,-0.983479,0.000000,0.000000,0.000000,-1,-2.055206,3.133873,0.206252,-0.052716,0.185516,0.380833
"2018-06-07 01:06:46.831 +0000",1528333606.831270,-0.038536,0.143632,0.047003,-0.038130,-0.143139,-0.988968,0.000000,0.000000,0.000000,-1,-2.512268,3.132560,-0.045482,-0.087755,-0.045566,0.223175
"2018-06-07 01:06:46.841 +0000",1528333606.841344,-0.007536,0.117779,0.043169,-0.007484,-0.117507,-0.993044,0.000000,0.000000,0.000000,-1,-2.557542,2.985817,-0.423356,-0.143715,-0.097383,0.071505
"2018-06-07 01:06:46.851 +0000",1528333606.851418,0.021192,0.093966,0.035567,0.021097,-0.093828,-0.995365,0.000000,0.000000,0.000000,-1,-2.274369,2.683331,-0.878807,-0.094629,0.086015,-0.100735
"2018-06-07 01:06:46.861 +0000",1528333606.861492,0.045931,0.073179,0.024965,0.045792,-0.073114,-0.996272,0.000000,0.000000,0.000000,-1,-1.949254,2.261728,-1.173353,0.061721,0.220086,-0.213003
"2018-06-07 01:06:46.872 +0000",1528333606.871567,0.067243,0.054776,0.014466,0.067092,-0.054749,-0.996244,0.000000,0.000000,0.000000,-1,-1.714320,2.004086,-1.097194,0.176011,0.192993,-0.200061
"2018-06-07 01:06:46.882 +0000",1528333606.881641,0.088361,0.037783,0.007438,0.088183,-0.037774,-0.995388,0.000000,0.000000,0.000000,-1,-1.608053,2.110400,-0.723880,0.285504,0.142327,-0.124897
"2018-06-07 01:06:46.892 +0000",1528333606.891715,0.111836,0.021760,0.004849,0.111577,-0.021758,-0.993518,0.000000,0.000000,0.000000,-1,-1.541087,2.405278,-0.316581,0.271403,0.168807,-0.093824
"2018-06-07 01:06:46.902 +0000",1528333606.901789,0.139637,0.006287,0.006119,0.139181,-0.006287,-0.990247,0.000000,0.000000,0.000000,-1,-1.550363,2.898981,0.009721,0.243601,0.205628,-0.066043
"2018-06-07 01:06:46.912 +0000",1528333606.911863,0.173967,-0.009724,0.010578,0.173083,0.009724,-0.984859,0.000000,0.000000,0.000000,-1,-1.674651,3.581565,0.244331,0.235914,0.208370,0.008922
"2018-06-07 01:06:46.922 +0000",1528333606.921937,0.214451,-0.026487,0.017728,0.212737,0.026484,-0.976751,0.000000,0.000000,0.000000,-1,-1.798286,4.119525,0.411828,0.226777,0.177068,0.044118
"2018-06-07 01:06:46.932 +0000",1528333606.932011,0.257626,-0.043447,0.026626,0.254546,0.043433,-0.966085,0.000000,0.000000,0.000000,-1,-1.853506,4.262926,0.472608,0.201219,0.129678,0.024953
"2018-06-07 01:06:46.942 +0000",1528333606.942085,0.294262,-0.059292,0.035787,0.289524,0.059257,-0.955335,0.000000,0.000000,0.000000,-1,-1.695646,3.162472,0.431397,0.157513,0.123803,-0.027392
"2018-06-07 01:06:46.952 +0000",1528333606.952159,0.307865,-0.072053,0.043421,0.302238,0.071991,-0.950510,0.000000,0.000000,0.000000,-1,-1.375179,0.764176,0.302139,0.120094,0.124375,-0.095114
"2018-06-07 01:06:46.962 +0000",1528333606.962233,0.308604,-0.085489,0.049765,0.302620,0.085384,-0.949279,0.000000,0.000000,0.000000,-1,-1.526748,-0.094175,0.176290,0.039619,0.103901,0.068954
"2018-06-07 01:06:46.972 +0000",1528333606.972307,0.310665,-0.101432,0.058053,0.304120,0.101258,-0.947237,0.000000,0.000000,0.000000,-1,-1.822540,0.246757,0.355441,0.002032,0.171676,0.208727
"2018-06-07 01:06:46.982 +0000",1528333606.982381,0.315727,-0.117972,0.068965,0.308349,0.117698,-0.943964,0.000000,0.000000,0.000000,-1,-1.898884,0.375183,0.570042,0.107316,0.239251,0.096567
"2018-06-07 01:06:46.992 +0000",1528333606.992455,0.319512,-0.133275,0.081643,0.311318,0.132881,-0.940970,0.000000,0.000000,0.000000,-1,-1.799301,0.157307,0.759570,0.203834,0.156121,-0.053781
"2018-06-07 01:06:47.003 +0000",1528333607.002529,0.321403,-0.146116,0.095707,0.312532,0.145597,-0.938683,0.000000,0.000000,0.000000,-1,-1.589516,-0.057013,0.959611,0.216704,0.057818,-0.117317
"2018-06-07 01:06:47.013 +0000",1528333607.012603,0.322138,-0.156105,0.110665,0.312746,0.155472,-0.937026,0.000000,0.000000,0.000000,-1,-1.343747,-0.177725,1.112515,0.179457,0.065613,-0.148591
"2018-06-07 01:06:47.023 +0000",1528333607.022677,0.322218,-0.163628,0.125825,0.312441,0.162899,-0.935866,0.000000,0.000000,0.000000,-1,-1.124726,-0.238894,1.184979,0.112669,0.048878,-0.138994
"2018-06-07 01:06:47.033 +0000",1528333607.032751,0.323541,-0.169259,0.140464,0.313382,0.168452,-0.934567,0.000000,0.000000,0.000000,-1,-0.944188,-0.035265,1.175477,0.033664,-0.026912,-0.123111
"2018-06-07 01:06:47.043 +0000",1528333607.042825,0.329109,-0.173932,0.154147,0.318324,0.173056,-0.932052,0.000000,0.000000,0.000000,-1,-0.854753,0.460420,1.093890,-0.011592,-0.029593,-0.062912
"2018-06-07 01:06:47.053 +0000",1528333607.052899,0.341222,-0.179056,0.166818,0.329289,0.178101,-0.927280,0.000000,0.000000,0.000000,-1,-0.910185,1.161135,0.976658,0.046047,0.010361,0.034336
"2018-06-07 01:06:47.063 +0000",1528333607.062973,0.360905,-0.185316,0.179879,0.347075,0.184257,-0.919559,0.000000,0.000000,0.000000,-1,-1.069686,1.915857,1.000732,0.149324,-0.010520,0.127338
"2018-06-07 01:06:47.073 +0000",1528333607.073047,0.409524,-0.231068,0.199105,0.387590,0.229017,-0.892930,0.000000,0.000000,0.000000,-1,-1.309532,2.694236,1.089597,0.207808,-0.063414,0.193742
"2018-06-07 01:06:47.083 +0000",1528333607.083121,0.443998,-0.240103,0.215496,0.417231,0.237803,-0.877136,0.000000,0.000000,0.000000,-1,-1.518646,3.121954,1.049370,0.157995,-0.045557,0.190842
"2018-06-07 01:06:47.093 +0000",1528333607.093195,0.480155,-0.250192,0.231900,0.447535,0.247590,-0.859309,0.000000,0.000000,0.000000,-1,-1.621879,3.207746,0.941216,0.072042,-0.056276,0.144724
"2018-06-07 01:06:47.103 +0000",1528333607.103269,0.517312,-0.260305,0.248376,0.477885,0.257375,-0.839871,0.000000,0.000000,0.000000,-1,-1.636420,3.293466,0.909229,0.026097,-0.045217,0.081692
"2018-06-07 01:06:47.113 +0000",1528333607.113343,0.576649,-0.294337,0.271721,0.521771,0.290105,-0.802243,0.000000,0.000000,0.000000,-1,-1.551872,3.168202,0.993647,0.065204,-0.054189,-0.007480
"2018-06-07 01:06:47.123 +0000",1528333607.123417,0.612786,-0.300498,0.290348,0.549376,0.295996,-0.781392,0.000000,0.000000,0.000000,-1,-1.484818,3.002973,1.172646,0.120653,-0.070623,0.003163
"2018-06-07 01:06:47.133 +0000",1528333607.133491,0.647289,-0.304325,0.311568,0.575317,0.299649,-0.761066,0.000000,0.000000,0.000000,-1,-1.502783,2.717247,1.495625,0.168976,-0.112378,0.010440
"2018-06-07 01:06:47.144 +0000",1528333607.143565,0.679909,-0.304874,0.337450,0.599728,0.300173,-0.741769,0.000000,0.000000,0.000000,-1,-1.570759,2.383229,2.045539,0.214603,-0.169771,-0.008185
"2018-06-07 01:06:47.154 +0000",1528333607.153639,0.732997,-0.317095,0.374801,0.635742,0.311808,-0.706122,0.000000,0.000000,0.000000,-1,-1.616589,1.896126,2.465880,0.199967,-0.124766,-0.141489
"2018-06-07 01:06:47.164 +0000",1528333607.163714,0.756038,-0.312918,0.405708,0.652730,0.307836,-0.692229,0.000000,0.000000,0.000000,-1,-1.699126,1.159724,2.362816,0.047328,0.027140,-0.205461
"2018-06-07 01:06:47.174 +0000",1528333607.173788,0.774556,-0.312352,0.434501,0.665557,0.307298,-0.680148,0.000000,0.000000,0.000000,-1,-1.900958,0.957073,1.862514,-0.157791,0.129836,-0.016324
"2018-06-07 01:06:47.184 +0000",1528333607.183862,0.794689,-0.317341,0.460977,0.678012,0.312041,-0.665529,0.000000,0.000000,0.000000,-1,-2.189775,1.294667,1.270401,-0.212604,0.134294,0.173006
"2018-06-07 01:06:47.194 +0000",1528333607.193936,0.840715,-0.338298,0.492885,0.702887,0.331882,-0.629129,0.000000,0.000000,0.000000,-1,-2.408922,1.651842,0.767465,-0.177573,0.102597,0.130945
"2018-06-07 01:06:47.204 +0000",1528333607.204010,0.864191,-0.350485,0.516007,0.714332,0.343354,-0.609785,0.000000,0.000000,0.000000,-1,-2.411511,1.478652,0.442122,-0.136055,0.065368,-0.091082
"2018-06-07 01:06:47.214 +0000",1528333607.214084,0.882782,-0.362985,0.537286,0.722173,0.355066,-0.593628,0.000000,0.000000,0.000000,-1,-2.271275,0.972478,0.297268,-0.129689,0.000586,-0.277756
"2018-06-07 01:06:47.224 +0000",1528333607.224158,0.896478,-0.373736,0.557127,0.727211,0.365096,-0.581265,0.000000,0.000000,0.000000,-1,-2.036047,0.565623,0.353630,-0.072304,-0.082762,-0.322620
"2018-06-07 01:06:47.234 +0000",1528333607.234232,0.913069,-0.383666,0.577786,0.733849,0.374322,-0.566876,0.000000,0.000000,0.000000,-1,-1.749114,0.374841,0.489025,0.068336,-0.116922,-0.291965
"2018-06-07 01:06:47.244 +0000",1528333607.244306,0.923476,-0.387936,0.595058,0.738426,0.378279,-0.558239,0.000000,0.000000,0.000000,-1,-1.454448,0.397891,0.685260,0.202537,-0.111372,-0.217868
"2018-06-07 01:06:47.254 +0000",1528333607.254380,0.933883,-0.389288,0.612669,0.743784,0.379530,-0.550220,0.000000,0.000000,0.000000,-1,-1.363725,0.362066,0.911909,0.171346,-0.091963,-0.174908
"2018-06-07 01:06:47.264 +0000",1528333607.264454,0.945756,-0.389410,0.630775,0.750227,0.379643,-0.541323,0.000000,0.000000,0.000000,-1,-1.344401,0.571557,0.968408,0.118578,-0.040135,-0.153242
"2018-06-07 01:06:47.275 +0000",1528333607.274529,0.980860,-0.398926,0.655259,0.765726,0.388429,-0.512626,0.000000,0.000000,0.000000,-1,-1.256292,0.957828,0.799378,0.022482,-0.032319,-0.128777
"2018-06-07 01:06:47.285 +0000",1528333607.284602,0.999951,-0.400066,0.669846,0.775000,0.389479,-0.497676,0.000000,0.000000,0.000000,-1,-1.157465,1.472750,0.586596,-0.021399,-0.011473,-0.118718
"2018-06-07 01:06:47.295 +0000",1528333607.294676,1.025014,-0.402402,0.683335,0.786449,0.391629,-0.477624,0.000000,0.000000,0.000000,-1,-1.179890,2.139752,0.415409,0.010976,0.045871,-0.022147
"2018-06-07 01:06:47.305 +0000",1528333607.304750,1.056915,-0.405542,0.696764,0.800208,0.394517,-0.451690,0.000000,0.000000,0.000000,-1,-1.231431,2.794178,0.344287,0.055932,0.010787,0.057769
"2018-06-07 01:06:47.315 +0000",1528333607.314824,1.094589,-0.407688,0.712237,0.815898,0.396488,-0.420840,0.000000,0.000000,0.000000,-1,-1.393150,3.220952,0.561028,0.174367,-0.129902,0.091403
"2018-06-07 01:06:47.325 +0000",1528333607.324898,1.133355,-0.406081,0.731843,0.832172,0.395012,-0.389172,0.000000,0.000000,0.000000,-1,-1.571133,2.971352,1.064111,0.368588,-0.233833,0.003094
"2018-06-07 01:06:47.335 +0000",1528333607.334972,1.168111,-0.399256,0.753894,0.847653,0.388733,-0.361069,0.000000,0.000000,0.000000,-1,-1.548160,2.476469,1.553113,0.323062,-0.100968,-0.184769
"2018-06-07 01:06:47.345 +0000",1528333607.345046,1.198733,-0.388016,0.775494,0.862327,0.378353,-0.336513,0.000000,0.000000,0.000000,-1,-1.353591,2.141011,1.834586,0.105538,-0.026042,-0.234684
"2018-06-07 01:06:47.355 +0000",1528333607.355120,1.225294,-0.374666,0.794596,0.875635,0.365961,-0.315175,0.000000,0.000000,0.000000,-1,-1.132829,1.862751,1.844028,-0.103738,-0.070673,-0.266062
"2018-06-07 01:06:47.365 +0000",1528333607.365194,1.249463,-0.361715,0.810918,0.887418,0.353879,-0.295394,0.000000,0.000000,0.000000,-1,-0.971716,1.839833,1.656430,-0.175184,-0.090787,-0.218308
"2018-06-07 01:06:47.375 +0000",1528333607.375268,1.274316,-0.350604,0.825481,0.898190,0.343465,-0.274382,0.000000,0.000000,0.000000,-1,-0.966710,1.979250,1.397594,-0.205151,-0.106802,-0.047609
"2018-06-07 01:06:47.385 +0000",1528333607.385342,1.297577,-0.341166,0.839901,0.907410,0.334587,-0.254281,0.000000,0.000000,0.000000,-1,-1.031548,1.762326,1.250823,-0.208298,-0.177192,-0.078788
"2018-06-07 01:06:47.395 +0000",1528333607.395416,1.323177,-0.330412,0.855670,0.917057,0.324433,-0.231839,0.000000,0.000000,0.000000,-1,-1.190142,2.104522,1.481294,0.066708,-0.302308,0.043591
"2018-06-07 01:06:47.405 +0000",1528333607.405490,1.346707,-0.318030,0.870196,0.926104,0.312696,-0.211075,0.000000,0.000000,0.000000,-1,-0.955909,1.810823,1.516475,-0.148745,-0.215238,-0.239975
"2018-06-07 01:06:47.416 +0000",1528333607.415564,1.367108,-0.305438,0.879683,0.933999,0.300711,-0.192920,0.000000,0.000000,0.000000,-1,-0.494569,1.695290,1.362341,-0.456979,-0.222570,-0.547909
"2018-06-07 01:06:47.426 +0000",1528333607.425638,1.383805,-0.294540,0.883535,0.940254,0.290300,-0.177898,0.000000,0.000000,0.000000,-1,-0.026613,1.510225,1.039114,-0.638817,-0.247377,-0.700459
"2018-06-07 01:06:47.436 +0000",1528333607.435712,1.397383,-0.286050,0.882075,0.944977,0.282165,-0.165534,0.000000,0.000000,0.000000,-1,0.369694,1.335821,0.744047,-0.694687,-0.195815,-0.804361
"2018-06-07 01:06:47.446 +0000",1528333607.445786,1.407659,-0.278798,0.879398,0.948622,0.275200,-0.156144,0.000000,0.000000,0.000000,-1,0.335017,1.008984,0.649595,-0.462446,-0.206566,-0.583190
"2018-06-07 01:06:47.456 +0000",1528333607.455860,1.415409,-0.273129,0.879031,0.951329,0.269746,-0.149026,0.000000,0.000000,0.000000,-1,0.048549,0.712358,0.513857,-0.283849,-0.233033,-0.287040
"2018-06-07 01:06:47.466 +0000",1528333607.465934,1.421517,-0.268878,0.880432,0.953347,0.265650,-0.143382,0.000000,0.000000,0.000000,-1,-0.083917,0.546646,0.413643,-0.163842,-0.193644,-0.270192
"2018-06-07 01:06:47.476 +0000",1528333607.476009,1.427173,-0.265621,0.881122,0.954994,0.262508,-0.138110,0.000000,0.000000,0.000000,-1,0.015742,0.546331,0.292942,-0.031487,-0.116298,-0.274701
"2018-06-07 01:06:47.486 +0000",1528333607.486084,1.432957,-0.263666,0.879768,0.956284,0.260622,-0.132655,0.000000,0.000000,0.000000,-1,0.206986,0.658413,0.131483,0.048279,-0.113359,-0.214895
"2018-06-07 01:06:47.496 +0000",1528333607.496157,1.440703,-0.263758,0.876486,0.957259,0.260710,-0.125240,0.000000,0.000000,0.000000,-1,0.329457,0.918880,-0.119741,0.022264,-0.149962,-0.102391
"2018-06-07 01:06:47.506 +0000",1528333607.506231,1.450291,-0.264996,0.874078,0.958094,0.261905,-0.116018,0.000000,0.000000,0.000000,-1,0.151850,1.044640,-0.122195,0.099370,-0.070011,0.067144
"2018-06-07 01:06:47.516 +0000",1528333607.516305,1.462781,-0.264892,0.874664,0.959496,0.261805,-0.104045,0.000000,0.000000,0.000000,-1,-0.116547,1.287944,0.057684,0.277977,0.096746,0.293208
"2018-06-07 01:06:47.526 +0000",1528333607.526379,1.476123,-0.264547,0.876622,0.960888,0.261472,-0.091243,0.000000,0.000000,0.000000,-1,-0.185640,1.229665,0.035085,0.102817,0.084490,0.108440
"2018-06-07 01:06:47.536 +0000",1528333607.536453,1.487006,-0.264786,0.878001,0.961762,0.261703,-0.080776,0.000000,0.000000,0.000000,-1,-0.116760,0.969882,-0.012082,0.003234,0.018693,-0.138157
"2018-06-07 01:06:47.547 +0000",1528333607.546527,1.494735,-0.264417,0.878568,0.962454,0.261347,-0.073347,0.000000,0.000000,0.000000,-1,-0.030901,0.686602,0.057890,0.048425,0.064719,-0.181749
"2018-06-07 01:06:47.557 +0000",1528333607.556601,1.499447,-0.264554,0.878220,0.962753,0.261479,-0.068808,0.000000,0.000000,0.000000,-1,0.052229,0.392037,-0.062553,-0.021866,0.126918,-0.174066
"2018-06-07 01:06:47.567 +0000",1528333607.566675,1.500903,-0.266953,0.877431,0.962224,0.263794,-0.067363,0.000000,0.000000,0.000000,-1,0.050161,0.099939,-0.304343,-0.163930,0.132599,-0.192464
"2018-06-07 01:06:47.577 +0000",1528333607.576749,1.500423,-0.271805,0.877098,0.960903,0.268470,-0.067734,0.000000,0.000000,0.000000,-1,-0.018227,-0.065017,-0.542384,-0.202206,0.096078,-0.195907
"2018-06-07 01:06:47.587 +0000",1528333607.586823,1.499000,-0.280041,0.876818,0.958568,0.276395,-0.068940,0.000000,0.000000,0.000000,-1,-0.023615,-0.175418,-0.921320,-0.256252,0.007846,-0.206756
"2018-06-07 01:06:47.597 +0000",1528333607.596897,1.496373,-0.294663,0.875280,0.954251,0.290417,-0.071150,0.000000,0.000000,0.000000,-1,0.058933,-0.225803,-1.679985,-0.419201,-0.028653,-0.225603
"2018-06-07 01:06:47.607 +0000",1528333607.606971,1.493955,-0.322126,0.871581,0.945765,0.316584,-0.072817,0.000000,0.000000,0.000000,-1,0.190897,-0.043604,-3.157693,-0.962244,-0.157236,-0.243574
"2018-06-07 01:06:47.617 +0000",1528333607.617045,1.494561,-0.361181,0.863300,0.932762,0.353379,-0.071247,0.000000,0.000000,0.000000,-1,0.561556,0.407829,-4.019897,-1.088036,-0.301774,-0.447369
"2018-06-07 01:06:47.627 +0000",1528333607.627119,1.494366,-0.394820,0.853219,0.920370,0.384642,-0.070482,0.000000,0.000000,0.000000,-1,0.693163,0.292282,-3.089062,0.252939,-0.061400,-0.234069
"2018-06-07 01:06:47.637 +0000",1528333607.637193,1.489172,-0.415966,0.842916,0.911680,0.404074,-0.074581,0.000000,0.000000,0.000000,-1,0.804298,-0.254682,-1.901245,0.999605,-0.006567,0.098735
"2018-06-07 01:06:47.647 +0000",1528333607.647267,1.480038,-0.432866,0.831390,0.904031,0.419474,-0.082274,0.000000,0.000000,0.000000,-1,0.898148,-0.420641,-1.792227,0.637168,-0.067499,0.229903
"2018-06-07 01:06:47.657 +0000",1528333607.657341,1.477152,-0.452131,0.820903,0.895577,0.436883,-0.084111,0.000000,0.000000,0.000000,-1,0.692399,0.416358,-2.047475,0.247627,0.025687,0.375509
"2018-06-07 01:06:47.667 +0000",1528333607.667415,1.484593,-0.472280,0.813632,0.887226,0.454918,-0.076672,0.000000,0.000000,0.000000,-1,0.397363,1.236581,-2.026128,0.313946,-0.069344,0.297284
"2018-06-07 01:06:47.677 +0000",1528333607.677489,1.497385,-0.491688,0.808055,0.879162,0.472115,-0.064656,0.000000,0.000000,0.000000,-1,0.341862,1.585216,-1.953994,0.309070,-0.203362,0.052434
"2018-06-07 01:06:47.688 +0000",1528333607.687563,1.509858,-0.512212,0.801369,0.870044,0.490106,-0.053085,0.000000,0.000000,0.000000,-1,0.480825,1.512761,-2.123399,0.038678,-0.216257,-0.141937
"2018-06-07 01:06:47.698 +0000",1528333607.697637,1.519572,-0.536011,0.793714,0.858625,0.510711,-0.044021,0.000000,0.000000,0.000000,-1,0.524938,1.298229,-2.507054,-0.236158,-0.165480,-0.150727
"2018-06-07 01:06:47.708 +0000",1528333607.707711,1.527455,-0.564206,0.785325,0.844220,0.534745,-0.036613,0.000000,0.000000,0.000000,-1,0.621814,1.196010,-2.936755,-0.376431,-0.153367,-0.204385
"2018-06-07 01:06:47.718 +0000",1528333607.717785,1.532714,-0.596012,0.773632,0.826980,0.561347,-0.031509,0.000000,0.000000,0.000000,-1,0.912877,1.143114,-3.219395,-0.310074,-0.153205,-0.433457
"2018-06-07 01:06:47.728 +0000",1528333607.727859,1.534978,-0.621608,0.760459,0.812422,0.582343,-0.029112,0.000000,0.000000,0.000000,-1,0.973319,0.894654,-2.305958,0.459307,0.020990,-0.294435
"2018-06-07 01:06:47.738 +0000",1528333607.737933,1.533667,-0.638147,0.749098,0.802647,0.595708,-0.029815,0.000000,0.000000,0.000000,-1,0.799717,0.421054,-1.524944,0.716930,-0.008321,0.111373
"2018-06-07 01:06:47.748 +0000",1528333607.748007,1.531108,-0.651747,0.740753,0.794399,0.606576,-0.031545,0.000000,0.000000,0.000000,-1,0.542349,0.225340,-1.359275,0.198521,0.021430,0.225347
"2018-06-07 01:06:47.758 +0000",1528333607.758081,1.530110,-0.665769,0.735370,0.785791,0.617664,-0.031988,0.000000,0.000000,0.000000,-1,0.320281,0.229445,-1.438352,-0.101419,0.131161,0.067145
"2018-06-07 01:06:47.768 +0000",1528333607.768156,1.523978,-0.681174,0.729433,0.775982,0.629705,-0.036357,0.000000,0.000000,0.000000,-1,0.470206,-0.562142,-1.578680,-0.215329,0.086603,-0.243795
"2018-06-07 01:06:47.778 +0000",1528333607.778230,1.504519,-0.696557,0.719068,0.765371,0.641581,-0.050801,0.000000,0.000000,0.000000,-1,0.754367,-1.373812,-1.552650,-0.164358,0.078131,-0.331417
"2018-06-07 01:06:47.788 +0000",1528333607.788304,1.486019,-0.710663,0.707058,0.755207,0.652337,-0.064178,0.000000,0.000000,0.000000,-1,0.813001,-0.874578,-1.453448,0.022152,-0.054940,-0.145721
"2018-06-07 01:06:47.798 +0000",1528333607.798378,1.471847,-0.725028,0.694306,0.744819,0.663156,-0.073941,0.000000,0.000000,0.000000,-1,0.818501,-0.509779,-1.530922,0.084877,-0.142130,-0.010166
"2018-06-07 01:06:47.808 +0000",1528333607.808452,1.460310,-0.739994,0.681762,0.733970,0.674283,-0.081425,0.000000,0.000000,0.000000,-1,0.733602,-0.235333,-1.588014,0.032815,-0.074582,0.065235
"2018-06-07 01:06:47.819 +0000",1528333607.818526,1.450940,-0.755725,0.670779,0.722553,0.685817,-0.087020,0.000000,0.000000,0.000000,-1,0.581912,-0.226636,-1.668314,-0.096546,0.042440,0.064849
"2018-06-07 01:06:47.829 +0000",1528333607.828600,1.437593,-0.772771,0.660113,0.709636,0.698122,-0.095089,0.000000,0.000000,0.000000,-1,0.526869,-0.736603,-1.823489,-0.241908,0.016142,-0.081974
"2018-06-07 01:06:47.839 +0000",1528333607.838674,1.419641,-0.795484,0.650101,0.691958,0.714202,-0.105397,0.000000,0.000000,0.000000,-1,0.305382,-1.149978,-2.610481,-0.548434,-0.103561,-0.140834
"2018-06-07 01:06:47.849 +0000",1528333607.848748,1.406759,-0.829588,0.644152,0.666115,0.737653,-0.110259,0.000000,0.000000,0.000000,-1,-0.323732,-0.722113,-3.488749,-0.970421,-0.265531,-0.030778
"2018-06-07 01:06:47.859 +0000",1528333607.858822,1.404158,-0.857586,0.644801,0.645201,0.756265,-0.108522,0.000000,0.000000,0.000000,-1,-0.461783,-0.208915,-2.398387,-0.949507,-0.284143,-0.032515
"2018-06-07 01:06:47.869 +0000",1528333607.868896,1.399847,-0.872328,0.640493,0.633671,0.765828,-0.109393,0.000000,0.000000,0.000000,-1,0.255498,-0.313704,-1.278437,0.934780,0.485378,-0.307691
"2018-06-07 01:06:47.879 +0000",1528333607.878970,1.381980,-0.882332,0.627628,0.624059,0.772222,-0.119253,0.000000,0.000000,0.000000,-1,0.647535,-0.813887,-1.114065,0.713816,-0.060369,-0.307078
"2018-06-07 01:06:47.889 +0000",1528333607.889044,1.370896,-0.892100,0.617382,0.615277,0.778391,-0.124659,0.000000,0.000000,0.000000,-1,0.362587,-0.101499,-1.025288,0.253147,0.102651,0.130701
"2018-06-07 01:06:47.899 +0000",1528333607.899118,1.369893,-0.898698,0.611044,0.610105,0.782517,-0.124248,0.000000,0.000000,0.000000,-1,0.246437,0.506801,-0.610205,0.197741,0.295486,-0.039158
"2018-06-07 01:06:47.909 +0000",1528333607.909192,1.370597,-0.901017,0.605512,0.608412,0.783959,-0.123458,0.000000,0.000000,0.000000,-1,0.310512,0.473410,-0.196325,0.134813,0.246300,-0.214662
"2018-06-07 01:06:47.919 +0000",1528333607.919266,1.370615,-0.900061,0.599451,0.609148,0.783365,-0.123596,0.000000,0.000000,0.000000,-1,0.399747,0.488964,0.081032,0.076338,0.226355,-0.135636
"2018-06-07 01:06:47.929 +0000",1528333607.929340,1.372203,-0.897389,0.593822,0.611394,0.781701,-0.123041,0.000000,0.000000,0.000000,-1,0.388139,0.631113,0.207323,0.072688,0.165641,-0.032904
"2018-06-07 01:06:47.939 +0000",1528333607.939414,1.374306,-0.895512,0.588640,0.613090,0.780529,-0.122041,0.000000,0.000000,0.000000,-1,0.335614,0.586503,0.077160,-0.014197,0.145817,-0.043929
"2018-06-07 01:06:47.949 +0000",1528333607.949488,1.375976,-0.895167,0.584397,0.613557,0.780314,-0.121069,0.000000,0.000000,0.000000,-1,0.243180,0.442935,-0.041367,-0.048051,0.118078,-0.098566
"2018-06-07 01:06:47.960 +0000",1528333607.959562,1.372329,-0.896789,0.580313,0.611869,0.781327,-0.123056,0.000000,0.000000,0.000000,-1,0.222438,-0.241196,-0.264892,-0.079154,0.025909,-0.144110
"2018-06-07 01:06:47.970 +0000",1528333607.969636,1.359495,-0.900681,0.574673,0.607262,0.783750,-0.130259,0.000000,0.000000,0.000000,-1,0.265997,-1.026070,-0.506069,-0.173088,-0.180936,-0.176763
"2018-06-07 01:06:47.980 +0000",1528333607.979710,1.341055,-0.907028,0.569270,0.599900,0.787676,-0.140299,0.000000,0.000000,0.000000,-1,0.136898,-1.475551,-0.736193,-0.186296,-0.296450,-0.103094
"2018-06-07 01:06:47.990 +0000",1528333607.989784,1.329565,-0.913718,0.569909,0.593119,0.791780,-0.145921,0.000000,0.000000,0.000000,-1,-0.320586,-1.003235,-0.581030,-0.079981,-0.241792,0.072862
"2018-06-07 01:06:48.000 +0000",1528333607.999858,1.332520,-0.920655,0.577855,0.588195,0.795998,-0.142867,0.000000,0.000000,0.000000,-1,-0.705854,-0.156850,-0.575534,-0.011520,-0.041573,0.151458
"2018-06-07 01:06:48.010 +0000",1528333608.009932,1.339697,-0.928124,0.591327,0.583402,0.800497,-0.137276,0.000000,0.000000,0.000000,-1,-1.062349,-0.561167,-0.469405,0.050524,0.066264,-0.106666
"2018-06-07 01:06:48.020 +0000",1528333608.020006,1.342227,-0.933250,0.610612,0.579743,0.803558,-0.134868,0.000000,0.000000,0.000000,-1,-1.253836,-1.503727,-0.173755,0.160018,-0.202789,-0.377675
"2018-06-07 01:06:48.030 +0000",1528333608.030080,1.338828,-0.937090,0.631098,0.576274,0.805839,-0.136128,0.000000,0.000000,0.000000,-1,-1.263345,-2.102379,-0.092650,0.045675,-0.201469,-0.337276
"2018-06-07 01:06:48.040 +0000",1528333608.040154,1.331874,-0.942376,0.651508,0.571166,0.808957,-0.139122,0.000000,0.000000,0.000000,-1,-1.288784,-2.360638,-0.304169,-0.125366,-0.052594,-0.216942
"2018-06-07 01:06:48.050 +0000",1528333608.050228,1.325869,-0.951186,0.670143,0.563385,0.814105,-0.140816,0.000000,0.000000,0.000000,-1,-1.248497,-1.939610,-0.678437,-0.186600,0.135023,-0.042244
"2018-06-07 01:06:48.060 +0000",1528333608.060303,1.327222,-0.961186,0.687109,0.555646,0.819871,-0.138083,0.000000,0.000000,0.000000,-1,-1.157836,-1.010555,-0.699606,-0.050092,0.039306,0.148184
"2018-06-07 01:06:48.070 +0000",1528333608.070377,1.335162,-0.967777,0.702801,0.551458,0.823627,-0.132402,0.000000,0.000000,0.000000,-1,-0.958648,-0.351823,-0.321670,0.186991,-0.193348,0.051027
"2018-06-07 01:06:48.080 +0000",1528333608.080451,1.345271,-0.968773,0.715360,0.551968,0.824192,-0.126637,0.000000,0.000000,0.000000,-1,-0.615680,0.123250,0.230733,0.290104,-0.337482,-0.124629
"2018-06-07 01:06:48.091 +0000",1528333608.090525,1.359168,-0.962845,0.723279,0.558442,0.820820,-0.119979,0.000000,0.000000,0.000000,-1,-0.206737,0.904835,0.770968,0.236419,-0.451756,-0.061189
"2018-06-07 01:06:48.101 +0000",1528333608.100599,1.370569,-0.955731,0.726243,0.565482,0.816736,-0.114763,0.000000,0.000000,0.000000,-1,0.011659,0.787355,0.658259,0.077463,-0.018228,-0.196638
"2018-06-07 01:06:48.111 +0000",1528333608.110673,1.373506,-0.953606,0.727678,0.567518,0.815508,-0.113441,0.000000,0.000000,0.000000,-1,-0.068035,-0.011717,0.055907,0.045824,0.338728,-0.316567
"2018-06-07 01:06:48.121 +0000",1528333608.120747,1.374079,-0.957713,0.728808,0.564293,0.817878,-0.112461,0.000000,0.000000,0.000000,-1,-0.162498,0.030988,-0.505239,0.027977,0.367806,-0.082150
"2018-06-07 01:06:48.131 +0000",1528333608.130821,1.376881,-0.965023,0.729502,0.558724,0.822062,-0.109724,0.000000,0.000000,0.000000,-1,-0.180789,0.263595,-0.750843,0.092048,0.135183,0.021345
"2018-06-07 01:06:48.141 +0000",1528333608.140895,1.379538,-0.973565,0.728969,0.552099,0.826896,-0.106900,0.000000,0.000000,0.000000,-1,-0.110676,0.318040,-0.860561,0.107416,0.004906,-0.098513
"2018-06-07 01:06:48.151 +0000",1528333608.150969,1.381134,-0.982288,0.726233,0.545165,0.831770,-0.104655,0.000000,0.000000,0.000000,-1,0.020641,0.413974,-0.875642,0.053804,-0.042280,-0.104405
"2018-06-07 01:06:48.161 +0000",1528333608.161043,1.381996,-0.989853,0.720874,0.539059,0.835945,-0.103001,0.000000,0.000000,0.000000,-1,0.190781,0.568733,-0.756185,0.014973,-0.098061,-0.053172
"2018-06-07 01:06:48.171 +0000",1528333608.171117,1.381327,-0.995478,0.712709,0.534363,0.839019,-0.102475,0.000000,0.000000,0.000000,-1,0.375379,0.604775,-0.589778,-0.010010,-0.120865,-0.046894
"2018-06-07 01:06:48.181 +0000",1528333608.181191,1.376538,-0.999272,0.702228,0.530739,0.841077,-0.104417,0.000000,0.000000,0.000000,-1,0.512104,0.302638,-0.439304,-0.028969,-0.093641,-0.123457
"2018-06-07 01:06:48.191 +0000",1528333608.191265,1.366847,-1.001429,0.691078,0.527925,0.842242,-0.109188,0.000000,0.000000,0.000000,-1,0.547103,-0.129300,-0.293277,-0.020448,-0.094195,-0.177174
"2018-06-07 01:06:48.201 +0000",1528333608.201339,1.355618,-1.002508,0.681395,0.525777,0.842824,-0.114915,0.000000,0.000000,0.000000,-1,0.451981,-0.346261,-0.189353,0.007807,-0.112446,-0.124983
"2018-06-07 01:06:48.211 +0000",1528333608.211413,1.346523,-1.003263,0.675619,0.524090,0.843229,-0.119550,0.000000,0.000000,0.000000,-1,0.219462,-0.437187,-0.126698,0.023548,-0.098189,-0.083910
"2018-06-07 01:06:48.221 +0000",1528333608.221487,1.341947,-1.003689,0.674854,0.523188,0.843458,-0.121866,0.000000,0.000000,0.000000,-1,-0.029371,-0.361515,-0.011889,0.079580,-0.156233,-0.068655
"2018-06-07 01:06:48.232 +0000",1528333608.231561,1.336667,-1.006424,0.674317,0.520291,0.844924,-0.124091,0.000000,0.000000,0.000000,-1,0.030724,-0.546223,-0.428839,0.161609,-0.507614,-0.123651
"2018-06-07 01:06:48.242 +0000",1528333608.241635,1.319992,-1.011489,0.664834,0.513997,0.847623,-0.131686,0.000000,0.000000,0.000000,-1,0.442686,-0.965042,-0.543943,0.310359,-0.538190,-0.225553
"2018-06-07 01:06:48.252 +0000",1528333608.251709,1.305408,-1.008164,0.657232,0.514739,0.845854,-0.139906,0.000000,0.000000,0.000000,-1,0.489326,-0.668320,0.458239,0.414369,-0.078383,-0.116686
"2018-06-07 01:06:48.262 +0000",1528333608.261783,1.297448,-1.000020,0.648446,0.520225,0.841482,-0.145854,0.000000,0.000000,0.000000,-1,0.732791,0.153751,0.657991,0.161553,0.018687,-0.079946
"2018-06-07 01:06:48.272 +0000",1528333608.271857,1.292009,-0.992332,0.638095,0.525628,0.837303,-0.150457,0.000000,0.000000,0.000000,-1,0.710271,0.305579,0.562752,-0.012429,-0.000786,-0.089579
"2018-06-07 01:06:48.282 +0000",1528333608.281931,1.287582,-0.985981,0.631752,0.530052,0.833814,-0.154265,0.000000,0.000000,0.000000,-1,0.435961,-0.007731,0.487174,-0.084022,0.103945,-0.076204
"2018-06-07 01:06:48.292 +0000",1528333608.292005,1.283437,-0.981557,0.629971,0.532940,0.831364,-0.157505,0.000000,0.000000,0.000000,-1,0.144212,-0.342830,0.359941,-0.109295,0.064007,-0.080197
"2018-06-07 01:06:48.302 +0000",1528333608.302079,1.280765,-0.979271,0.631345,0.534337,0.830091,-0.159471,0.000000,0.000000,0.000000,-1,-0.044647,-0.359147,0.198979,-0.104817,0.102785,-0.043410
"2018-06-07 01:06:48.312 +0000",1528333608.312153,1.280000,-0.978971,0.632863,0.534454,0.829924,-0.159951,0.000000,0.000000,0.000000,-1,-0.071724,-0.139954,0.004987,-0.104080,0.145159,-0.031607
"2018-06-07 01:06:48.322 +0000",1528333608.322227,1.280499,-0.979791,0.632499,0.533881,0.830381,-0.159490,0.000000,0.000000,0.000000,-1,0.027540,0.156066,-0.100868,-0.077765,0.099795,-0.053630
"2018-06-07 01:06:48.332 +0000",1528333608.332301,1.281331,-0.980367,0.630107,0.533554,0.830702,-0.158909,0.000000,0.000000,0.000000,-1,0.129208,0.293524,-0.089945,-0.027420,-0.024992,-0.086315
"2018-06-07 01:06:48.342 +0000",1528333608.342375,1.281371,-0.980979,0.627227,0.533074,0.831042,-0.158743,0.000000,0.000000,0.000000,-1,0.133621,0.220063,-0.108454,0.019081,-0.100680,-0.127054
"2018-06-07 01:06:48.352 +0000",1528333608.352449,1.280824,-0.982256,0.624840,0.531969,0.831752,-0.158730,0.000000,0.000000,0.000000,-1,0.069164,0.113707,-0.181760,0.020185,-0.101390,-0.127067
"2018-06-07 01:06:48.363 +0000",1528333608.362523,1.280591,-0.984147,0.623323,0.530424,0.832800,-0.158404,0.000000,0.000000,0.000000,-1,0.026244,0.118060,-0.201011,0.044985,0.008142,-0.099851
"2018-06-07 01:06:48.373 +0000",1528333608.372597,1.281102,-0.985331,0.620657,0.529560,0.833455,-0.157851,0.000000,0.000000,0.000000,-1,0.142157,0.338780,-0.140398,-0.006519,0.048365,-0.065293
"2018-06-07 01:06:48.383 +0000",1528333608.382672,1.281940,-0.985537,0.615422,0.529527,0.833569,-0.157358,0.000000,0.000000,0.000000,-1,0.310653,0.559683,-0.088510,-0.039033,-0.024975,-0.048666
"2018-06-07 01:06:48.393 +0000",1528333608.392746,1.282126,-0.984901,0.608216,0.530065,0.833217,-0.157411,0.000000,0.000000,0.000000,-1,0.417381,0.622364,-0.043395,-0.035375,-0.043056,-0.085036
"2018-06-07 01:06:48.403 +0000",1528333608.402820,1.281593,-0.984035,0.600753,0.530672,0.832738,-0.157899,0.000000,0.000000,0.000000,-1,0.405831,0.533368,-0.032871,-0.038088,-0.015340,-0.115004
"2018-06-07 01:06:48.413 +0000",1528333608.412894,1.233842,-0.985698,0.555804,0.521222,0.833658,-0.182591,0.000000,0.000000,0.000000,-1,0.304791,0.327059,-0.117140,-0.025495,0.002295,-0.111613
"2018-06-07 01:06:48.423 +0000",1528333608.422968,1.206089,-0.947642,0.530542,0.545214,0.812041,-0.208156,0.000000,0.000000,0.000000,-1,0.178421,0.041533,-0.175766,-0.053835,0.059892,-0.097951
"2018-06-07 01:06:48.433 +0000",1528333608.433042,1.189421,-0.927965,0.517248,0.556393,0.800402,-0.223119,0.000000,0.000000,0.000000,-1,0.045498,-0.171659,-0.210503,-0.055539,0.027342,-0.065440
"2018-06-07 01:06:48.443 +0000",1528333608.443116,1.178582,-0.930441,0.510637,0.552109,0.801884,-0.228378,0.000000,0.000000,0.000000,-1,-0.042432,-0.344180,-0.228014,-0.032242,-0.063938,-0.046662
"2018-06-07 01:06:48.453 +0000",1528333608.453190,1.171426,-0.943903,0.508207,0.540466,0.809854,-0.228104,0.000000,0.000000,0.000000,-1,-0.089431,-0.440819,-0.250776,-0.016449,-0.113763,-0.024963
"2018-06-07 01:06:48.463 +0000",1528333608.463264,1.166165,-0.954118,0.507678,0.531626,0.815804,-0.227676,0.000000,0.000000,0.000000,-1,-0.146249,-0.476703,-0.370146,-0.011393,-0.055642,0.011199
"2018-06-07 01:06:48.473 +0000",1528333608.473338,1.155121,-0.960643,0.502561,0.524198,0.819560,-0.231379,0.000000,0.000000,0.000000,-1,-0.221669,-0.485016,-0.532420,0.016894,0.051595,0.023737
"2018-06-07 01:06:48.483 +0000",1528333608.483412,1.139917,-0.968641,0.493222,0.514648,0.824117,-0.236576,0.000000,0.000000,0.000000,-1,-0.195367,-0.420642,-0.682884,0.051743,0.101283,0.017796
"2018-06-07 01:06:48.493 +0000",1528333608.493486,1.123516,-0.975632,0.481454,0.505491,0.828057,-0.242487,0.000000,0.000000,0.000000,-1,-0.089299,-0.308325,-0.694632,0.071246,0.048088,0.010370
"2018-06-07 01:06:48.504 +0000",1528333608.503560,1.106913,-0.982311,0.468329,0.496439,0.831782,-0.248366,0.000000,0.000000,0.000000,-1,0.055932,-0.265504,-0.600183,0.073050,-0.087993,-0.009721
"2018-06-07 01:06:48.514 +0000",1528333608.513634,1.093275,-0.985030,0.457381,0.490995,0.833289,-0.254073,0.000000,0.000000,0.000000,-1,0.166224,-0.347569,-0.590994,0.022952,-0.100272,-0.046434
"2018-06-07 01:06:48.524 +0000",1528333608.523708,1.082157,-0.982920,0.448990,0.489691,0.832121,-0.260340,0.000000,0.000000,0.000000,-1,0.167327,-0.471076,-0.719357,-0.010351,0.000780,-0.027013
"2018-06-07 01:06:48.534 +0000",1528333608.533782,1.074899,-0.980684,0.444647,0.489424,0.830878,-0.264772,0.000000,0.000000,0.000000,-1,0.054230,-0.499762,-0.760056,0.010118,0.046991,0.008668
"2018-06-07 01:06:48.544 +0000",1528333608.543856,1.071877,-0.983540,0.444712,0.486536,0.832464,-0.265113,0.000000,0.000000,0.000000,-1,-0.008241,-0.528766,-0.691156,0.035452,-0.070058,0.013878
"2018-06-07 01:06:48.554 +0000",1528333608.553930,1.064189,-0.989130,0.441213,0.480407,0.835548,-0.266584,0.000000,0.000000,0.000000,-1,0.122062,-0.640401,-0.685325,0.104493,-0.311073,-0.061465
"2018-06-07 01:06:48.564 +0000",1528333608.564003,1.049558,-0.994078,0.431721,0.472864,0.838257,-0.271522,0.000000,0.000000,0.000000,-1,0.229223,-0.666449,-0.685647,0.093222,-0.293960,-0.049065
"2018-06-07 01:06:48.574 +0000",1528333608.574078,1.033477,-0.998431,0.421023,0.465298,0.840622,-0.277220,0.000000,0.000000,0.000000,-1,0.293175,-0.731137,-0.662317,0.045643,-0.306748,0.015486
"2018-06-07 01:06:48.584 +0000",1528333608.584152,1.014007,-1.002723,0.408617,0.456745,0.842939,-0.284317,0.000000,0.000000,0.000000,-1,0.374790,-0.954568,-0.730919,-0.000156,-0.341398,0.015824
"2018-06-07 01:06:48.594 +0000",1528333608.594225,0.990040,-1.006698,0.392642,0.446995,0.845071,-0.293341,0.000000,0.000000,0.000000,-1,0.547789,-1.045942,-0.816557,-0.031865,-0.275018,-0.001001
"2018-06-07 01:06:48.604 +0000",1528333608.604300,0.962947,-1.011999,0.373608,0.435201,0.847893,-0.302779,0.000000,0.000000,0.000000,-1,0.494463,-1.161237,-1.107195,-0.094824,-0.197182,0.058166
"2018-06-07 01:06:48.614 +0000",1528333608.614374,0.925023,-1.026773,0.357882,0.413359,0.855633,-0.311489,0.000000,0.000000,0.000000,-1,-0.484628,-2.987681,-1.815889,-0.390654,-0.575573,0.245861
"2018-06-07 01:06:48.624 +0000",1528333608.624448,0.872034,-1.050513,0.343594,0.380618,0.867678,-0.319786,0.000000,0.000000,0.000000,-1,-1.041442,-4.287397,-2.458404,-0.485171,-0.405383,0.410606
"2018-06-07 01:06:48.635 +0000",1528333608.634521,0.811876,-1.079952,0.326730,0.342016,0.881935,-0.324367,0.000000,0.000000,0.000000,-1,-1.407519,-4.486896,-2.771154,-0.116949,-0.184364,0.356579
"2018-06-07 01:06:48.645 +0000",1528333608.644596,0.742235,-1.109901,0.299855,0.300622,0.895655,-0.327762,0.000000,0.000000,0.000000,-1,-1.171238,-4.575181,-3.027956,0.183295,0.051214,-0.078320
"2018-06-07 01:06:48.655 +0000",1528333608.654670,0.666296,-1.133756,0.253270,0.261607,0.906008,-0.332730,0.000000,0.000000,0.000000,-1,-0.271769,-2.669096,-3.039530,0.192128,0.622083,-0.499850
"2018-06-07 01:06:48.665 +0000",1528333608.664743,0.610465,-1.148955,0.190425,0.234711,0.912336,-0.335487,0.000000,0.000000,0.000000,-1,0.508521,0.978306,-2.928520,0.227509,0.408525,-0.306801
"2018-06-07 01:06:48.675 +0000",1528333608.674818,0.573398,-1.155429,0.130322,0.218908,0.914968,-0.338985,0.000000,0.000000,0.000000,-1,0.905015,1.721452,-2.130213,0.312052,-0.345449,-0.447483
"2018-06-07 01:06:48.685 +0000",1528333608.684892,0.535021,-1.154287,0.084529,0.206273,0.914507,-0.348034,0.000000,0.000000,0.000000,-1,1.092843,-0.193724,-1.323027,0.204692,-0.501131,-0.646992
"2018-06-07 01:06:48.695 +0000",1528333608.694966,0.488911,-1.150125,0.050827,0.191798,0.912815,-0.360529,0.000000,0.000000,0.000000,-1,0.975764,-1.875350,-0.914603,-0.061961,-0.097904,-0.308371
"2018-06-07 01:06:48.705 +0000",1528333608.705040,0.438782,-1.148487,0.021440,0.174127,0.912145,-0.371040,0.000000,0.000000,0.000000,-1,0.561336,-2.352361,-1.051648,-0.433770,0.404750,0.278282
"2018-06-07 01:06:48.715 +0000",1528333608.715115,0.392074,-1.151680,-0.008367,0.155499,0.913449,-0.376072,0.000000,0.000000,0.000000,-1,0.067828,-1.724829,-1.285335,-0.486782,0.560886,0.821201
"2018-06-07 01:06:48.725 +0000",1528333608.725189,0.355680,-1.159246,-0.034696,0.139301,0.916502,-0.374991,0.000000,0.000000,0.000000,-1,-0.425909,-1.122732,-1.212536,-0.159733,0.436754,0.915122
"2018-06-07 01:06:48.735 +0000",1528333608.735263,0.327049,-1.167910,-0.054113,0.125954,0.919933,-0.371292,0.000000,0.000000,0.000000,-1,-0.560401,-1.071558,-0.938865,0.103599,0.359623,0.280410
"2018-06-07 01:06:48.745 +0000",1528333608.745337,0.302683,-1.173797,-0.070051,0.115254,0.922226,-0.369074,0.000000,0.000000,0.000000,-1,-0.265131,-0.903769,-0.702411,0.173168,0.378968,-0.319067
"2018-06-07 01:06:48.755 +0000",1528333608.755411,0.281678,-1.175414,-0.084990,0.107062,0.922849,-0.369981,0.000000,0.000000,0.000000,-1,0.098992,-0.644309,-0.552976,0.164346,0.343584,-0.555602
"2018-06-07 01:06:48.765 +0000",1528333608.765485,0.267796,-1.173705,-0.094985,0.102333,0.922190,-0.372951,0.000000,0.000000,0.000000,-1,0.313780,-0.414496,-0.238711,0.135429,0.063986,-0.440098
"2018-06-07 01:06:48.776 +0000",1528333608.775558,0.260369,-1.170091,-0.099390,0.100418,0.920786,-0.376919,0.000000,0.000000,0.000000,-1,0.397144,-0.316348,-0.027790,0.083405,-0.141367,-0.220951
"2018-06-07 01:06:48.786 +0000",1528333608.785633,0.258666,-1.166698,-0.098597,0.100574,0.919457,-0.380108,0.000000,0.000000,0.000000,-1,0.292587,-0.202199,0.169625,0.030575,-0.183434,-0.000751
"2018-06-07 01:06:48.796 +0000",1528333608.795707,0.261737,-1.163328,-0.094870,0.102542,0.918127,-0.382788,0.000000,0.000000,0.000000,-1,0.286683,0.019293,0.227292,-0.014468,-0.306265,0.132727
"2018-06-07 01:06:48.806 +0000",1528333608.805780,0.264676,-1.159751,-0.093439,0.104525,0.916704,-0.385652,0.000000,0.000000,0.000000,-1,0.345156,0.196672,0.113656,-0.098559,-0.089982,0.159929
"2018-06-07 01:06:48.816 +0000",1528333608.815855,0.265271,-1.156288,-0.095592,0.105587,0.915314,-0.388652,0.000000,0.000000,0.000000,-1,0.347189,0.265311,-0.022756,-0.090724,0.028350,0.101756
"2018-06-07 01:06:48.826 +0000",1528333608.825929,0.263124,-1.154189,-0.099936,0.105251,0.914467,-0.390732,0.000000,0.000000,0.000000,-1,0.203308,0.134790,-0.145430,-0.035503,0.096870,0.009094
"2018-06-07 01:06:48.836 +0000",1528333608.836003,0.257797,-1.153881,-0.105469,0.103240,0.914342,-0.391559,0.000000,0.000000,0.000000,-1,0.050751,-0.088165,-0.221024,-0.008910,0.078898,-0.050107
"2018-06-07 01:06:48.846 +0000",1528333608.846076,0.249633,-1.154137,-0.112418,0.099982,0.914446,-0.392162,0.000000,0.000000,0.000000,-1,0.043057,-0.197633,-0.299847,-0.031836,-0.007311,-0.054310
"2018-06-07 01:06:48.856 +0000",1528333608.856151,0.238937,-1.155144,-0.120842,0.095564,0.914853,-0.392314,0.000000,0.000000,0.000000,-1,-0.045532,-0.330403,-0.373174,-0.057035,-0.024869,-0.006170
"2018-06-07 01:06:48.866 +0000",1528333608.866225,0.225930,-1.158032,-0.130581,0.089861,0.916016,-0.390947,0.000000,0.000000,0.000000,-1,-0.236984,-0.443650,-0.458041,-0.046236,-0.029114,0.077760
"2018-06-07 01:06:48.876 +0000",1528333608.876298,0.216490,-1.162306,-0.138415,0.085325,0.917721,-0.387951,0.000000,0.000000,0.000000,-1,-0.378561,-0.124881,-0.389024,0.093661,-0.132123,0.173321
"2018-06-07 01:06:48.886 +0000",1528333608.886373,0.209624,-1.166993,-0.145554,0.081763,0.919573,-0.384316,0.000000,0.000000,0.000000,-1,-0.392397,-0.049233,-0.374789,0.001337,-0.110537,0.069344
"2018-06-07 01:06:48.896 +0000",1528333608.896447,0.201790,-1.171447,-0.152570,0.077928,0.921314,-0.380928,0.000000,0.000000,0.000000,-1,-0.372559,-0.130520,-0.349256,-0.029878,-0.102741,-0.013024
"2018-06-07 01:06:48.907 +0000",1528333608.906521,0.195251,-1.175538,-0.159597,0.074704,0.922897,-0.377729,0.000000,0.000000,0.000000,-1,-0.332865,0.035321,-0.341334,-0.036175,-0.202789,0.123243
"2018-06-07 01:06:48.917 +0000",1528333608.916595,0.188525,-1.178929,-0.166775,0.071575,0.924197,-0.375147,0.000000,0.000000,0.000000,-1,-0.265796,-0.044755,-0.311603,-0.016948,-0.194629,0.103464
"2018-06-07 01:06:48.927 +0000",1528333608.926669,0.181347,-1.182941,-0.172382,0.068211,0.925722,-0.372000,0.000000,0.000000,0.000000,-1,-0.396252,-0.242936,-0.259174,0.032146,-0.181597,0.076422
"2018-06-07 01:06:48.937 +0000",1528333608.936743,0.173658,-1.189432,-0.176319,0.064309,0.928158,-0.366588,0.000000,0.000000,0.000000,-1,-0.686855,-0.453341,-0.277407,0.034629,-0.162731,0.109554
"2018-06-07 01:06:48.947 +0000",1528333608.946816,0.161008,-1.200405,-0.180787,0.058030,0.932186,-0.357297,0.000000,0.000000,0.000000,-1,-1.233848,-1.103281,-0.364096,-0.003068,-0.488765,0.206906
"2018-06-07 01:06:48.957 +0000",1528333608.956891,0.156329,-1.224181,-0.165049,0.052891,0.940528,-0.335572,0.000000,0.000000,0.000000,-1,-2.932955,-2.028327,0.253448,-0.197407,-2.759299,0.867676
"2018-06-07 01:06:48.967 +0000",1528333608.966965,0.179313,-1.274888,-0.126908,0.052009,0.956538,-0.286931,0.000000,0.000000,0.000000,-1,-5.689360,-1.255968,1.158020,-2.216697,-3.618098,2.668370
"2018-06-07 01:06:48.977 +0000",1528333608.977039,0.263060,-1.349319,-0.032690,0.057122,0.975574,-0.212111,0.000000,0.000000,0.000000,-1,-8.392925,-0.070500,-0.082240,-0.597893,2.140912,1.958007
"2018-06-07 01:06:48.987 +0000",1528333608.987113,0.415035,-1.421973,0.089178,0.059785,0.988946,-0.135680,0.000000,0.000000,0.000000,-1,-6.951073,4.003766,-0.278062,0.979613,2.712454,-0.294312
"2018-06-07 01:06:48.997 +0000",1528333608.997187,0.716985,-1.468211,0.357592,0.067286,0.994743,-0.077185,0.000000,0.000000,0.000000,-1,-5.356882,2.953532,0.700523,1.566411,0.769646,-3.185449
"2018-06-07 01:06:49.007 +0000",1528333609.007261,1.203059,-1.486197,0.832385,0.078839,0.996424,-0.030374,0.000000,0.000000,0.000000,-1,-4.278039,1.050422,1.052857,1.168460,0.734808,-1.666953
"2018-06-07 01:06:49.017 +0000",1528333609.017334,1.673799,-1.487448,1.294591,0.082799,0.996529,0.008559,0.000000,0.000000,0.000000,-1,-3.668437,0.990976,0.186469,0.293696,1.441154,0.164964
"2018-06-07 01:06:49.027 +0000",1528333609.027409,2.045398,-1.481794,1.666264,0.079049,0.996042,0.040613,0.000000,0.000000,0.000000,-1,-2.948182,-0.295905,-0.576178,0.022971,0.807333,0.311605
"2018-06-07 01:06:49.037 +0000",1528333609.037483,2.289692,-1.476923,1.923058,0.070530,0.995597,0.061722,0.000000,0.000000,0.000000,-1,-1.996886,-1.295017,-0.959890,0.039577,0.334603,0.091171
"2018-06-07 01:06:49.048 +0000",1528333609.047557,2.467010,-1.471978,2.112522,0.061611,0.995121,0.077039,0.000000,0.000000,0.000000,-1,-1.488750,-1.001570,-0.966654,0.010654,0.126018,0.169909
"2018-06-07 01:06:49.058 +0000",1528333609.057631,2.600822,-1.468588,2.251080,0.052518,0.994781,0.087461,0.000000,0.000000,0.000000,-1,-0.894286,-0.240452,-0.920624,-0.135053,0.175736,0.163745
"2018-06-07 01:06:49.068 +0000",1528333609.067706,2.684783,-1.467722,2.338235,0.045379,0.994693,0.092330,0.000000,0.000000,0.000000,-1,-0.390939,-0.310363,-0.669203,-0.135024,0.016217,0.013551
"2018-06-07 01:06:49.078 +0000",1528333609.077780,2.730416,-1.467290,2.387983,0.041291,0.994648,0.094698,0.000000,0.000000,0.000000,-1,-0.226187,-0.379231,-0.367525,-0.167161,-0.022129,-0.081591
"2018-06-07 01:06:49.088 +0000",1528333609.087853,2.749528,-1.467393,2.410514,0.039435,0.994659,0.095376,0.000000,0.000000,0.000000,-1,-0.018712,-0.319086,-0.174209,-0.163977,0.042527,-0.211358
"2018-06-07 01:06:49.098 +0000",1528333609.097928,2.743203,-1.468968,2.407466,0.039431,0.994820,0.093682,0.000000,0.000000,0.000000,-1,0.209889,-0.330210,0.012398,-0.035494,0.000816,-0.232446
"2018-06-07 01:06:49.108 +0000",1528333609.108002,2.716234,-1.471469,2.384017,0.040916,0.995071,0.090319,0.000000,0.000000,0.000000,-1,0.349666,-0.376480,0.144247,0.053582,-0.026153,-0.110461
"2018-06-07 01:06:49.118 +0000",1528333609.118076,2.679376,-1.474503,2.350875,0.042869,0.995367,0.086047,0.000000,0.000000,0.000000,-1,0.424196,-0.373001,0.149465,0.061882,0.018976,-0.044283
"2018-06-07 01:06:49.128 +0000",1528333609.128150,2.651439,-1.478018,2.325755,0.043608,0.995699,0.081727,0.000000,0.000000,0.000000,-1,0.405177,-0.267102,0.014285,0.002870,0.080686,-0.036698
"2018-06-07 01:06:49.138 +0000",1528333609.138224,2.638506,-1.481308,2.314807,0.043081,0.995999,0.078284,0.000000,0.000000,0.000000,-1,0.312469,-0.179071,-0.097113,-0.010733,-0.001186,-0.044807
"2018-06-07 01:06:49.148 +0000",1528333609.148298,2.641657,-1.484567,2.319029,0.041279,0.996284,0.075572,0.000000,0.000000,0.000000,-1,0.254448,-0.082144,-0.212868,0.008678,-0.002800,0.000966
"2018-06-07 01:06:49.158 +0000",1528333609.158371,2.653875,-1.488025,2.331882,0.038739,0.996576,0.073029,0.000000,0.000000,0.000000,-1,0.261162,-0.055540,-0.269815,0.034320,0.045172,0.005142
"2018-06-07 01:06:49.168 +0000",1528333609.168446,2.665403,-1.492886,2.343771,0.035672,0.996967,0.069163,0.000000,0.000000,0.000000,-1,0.443248,-0.016386,-0.323901,0.041629,0.131375,-0.063273
"2018-06-07 01:06:49.179 +0000",1528333609.178520,2.665762,-1.501000,2.343849,0.031941,0.997565,0.061983,0.000000,0.000000,0.000000,-1,0.816521,0.033200,-0.382696,0.066310,0.227212,-0.123934
"2018-06-07 01:06:49.189 +0000",1528333609.188594,2.633444,-1.513414,2.312611,0.027899,0.998354,0.050094,0.000000,0.000000,0.000000,-1,1.302288,-0.213394,-0.418946,0.071802,0.284010,-0.182999
"2018-06-07 01:06:49.199 +0000",1528333609.198668,2.495035,-1.532184,2.178961,0.023245,0.999255,0.030796,0.000000,0.000000,0.000000,-1,2.154020,-0.523529,-0.505699,0.033015,0.352293,-0.219273
"2018-06-07 01:06:49.209 +0000",1528333609.208742,1.600895,-1.553085,1.294588,0.017649,0.999843,0.000531,0.000000,0.000000,0.000000,-1,3.286470,-1.218247,-0.581306,0.061178,0.449147,-0.169110
"2018-06-07 01:06:49.219 +0000",1528333609.218816,0.267546,-1.527481,-0.013218,0.011442,0.999062,-0.041740,0.000000,0.000000,0.000000,-1,4.468377,-3.052854,-0.528038,0.061465,0.582832,-0.385201
"2018-06-07 01:06:49.229 +0000",1528333609.228889,0.057207,-1.472723,-0.186271,0.005598,0.995195,-0.097748,0.000000,0.000000,0.000000,-1,5.893355,-3.863512,-0.248614,0.044542,0.583571,-0.327896
"2018-06-07 01:06:49.239 +0000",1528333609.238964,0.013665,-1.406297,-0.192677,0.002238,0.986501,-0.163739,0.000000,0.000000,0.000000,-1,6.705889,-3.490341,0.307795,0.060735,0.421764,-0.353260
"2018-06-07 01:06:49.249 +0000",1528333609.249038,0.028157,-1.354834,-0.162569,0.006033,0.976771,-0.214200,0.000000,0.000000,0.000000,-1,4.288368,-0.661105,0.733534,0.076105,-0.030054,-0.054553
"2018-06-07 01:06:49.259 +0000",1528333609.259111,0.081234,-1.327181,-0.128233,0.019573,0.970472,-0.240414,0.000000,0.000000,0.000000,-1,2.317995,2.743120,0.989969,-0.075130,-0.461042,0.793271
"2018-06-07 01:06:49.269 +0000",1528333609.269186,0.162310,-1.311014,-0.084649,0.041509,0.966446,-0.253491,0.000000,0.000000,0.000000,-1,1.212237,4.016354,1.347941,0.092112,-0.670807,0.549786
"2018-06-07 01:06:49.279 +0000",1528333609.279260,0.248741,-1.302413,-0.032896,0.065281,0.964201,-0.257009,0.000000,0.000000,0.000000,-1,0.367158,3.386519,1.505088,0.172222,-0.694258,0.338247
"2018-06-07 01:06:49.289 +0000",1528333609.289334,0.317472,-1.301009,0.012259,0.083200,0.963828,-0.253205,0.000000,0.000000,0.000000,-1,-0.479121,2.238327,0.924989,0.008902,-0.503684,0.249848
"2018-06-07 01:06:49.299 +0000",1528333609.299407,0.360974,-1.308334,0.039156,0.091636,0.965754,-0.242735,0.000000,0.000000,0.000000,-1,-0.985358,1.585188,0.318660,-0.143363,-0.297328,0.211286
"2018-06-07 01:06:49.309 +0000",1528333609.309482,0.390000,-1.315793,0.059667,0.095901,0.967662,-0.233304,0.000000,0.000000,0.000000,-1,-0.818601,0.638797,0.193978,-0.161361,-0.201244,-0.135745
"2018-06-07 01:06:49.320 +0000",1528333609.319556,0.401005,-1.320063,0.074240,0.096848,0.968731,-0.228428,0.000000,0.000000,0.000000,-1,-0.415970,-0.621310,0.166801,-0.115128,-0.044491,-0.392178
"2018-06-07 01:06:49.330 +0000",1528333609.329629,0.394558,-1.320465,0.082862,0.095224,0.968830,-0.228688,0.000000,0.000000,0.000000,-1,-0.038004,-1.724699,0.186390,-0.010843,0.095867,-0.409618
"2018-06-07 01:06:49.340 +0000",1528333609.339704,0.380417,-1.318753,0.090760,0.092596,0.968405,-0.231551,0.000000,0.000000,0.000000,-1,0.105715,-2.246107,0.273823,0.133646,0.124018,-0.253602
"2018-06-07 01:06:49.350 +0000",1528333609.349778,0.369845,-1.316583,0.102405,0.090903,0.967861,-0.234476,0.000000,0.000000,0.000000,-1,0.087007,-2.091758,0.365745,0.245538,0.112446,-0.089010
"2018-06-07 01:06:49.360 +0000",1528333609.359852,0.365555,-1.314099,0.114629,0.090755,0.967234,-0.237109,0.000000,0.000000,0.000000,-1,0.143017,-1.403331,0.372997,0.285038,0.137243,-0.014585
"2018-06-07 01:06:49.370 +0000",1528333609.369925,0.366485,-1.310216,0.124181,0.092321,0.966241,-0.240529,0.000000,0.000000,0.000000,-1,0.325154,-0.649702,0.360789,0.322337,0.115409,-0.054225
"2018-06-07 01:06:49.380 +0000",1528333609.380000,0.371249,-1.304191,0.132215,0.095576,0.964671,-0.245507,0.000000,0.000000,0.000000,-1,0.528942,-0.208164,0.440129,0.377431,0.064458,-0.153235
"2018-06-07 01:06:49.390 +0000",1528333609.390074,0.383423,-1.296484,0.146188,0.101336,0.962612,-0.251213,0.000000,0.000000,0.000000,-1,0.581559,-0.112455,0.688761,0.386381,0.005085,-0.136986
"2018-06-07 01:06:49.400 +0000",1528333609.400147,0.400439,-1.288045,0.164292,0.108759,0.960291,-0.256925,0.000000,0.000000,0.000000,-1,0.579719,-0.030515,0.781509,0.230001,0.063436,-0.033892
"2018-06-07 01:06:49.410 +0000",1528333609.410222,0.415341,-1.279500,0.180454,0.115882,0.957872,-0.262774,0.000000,0.000000,0.000000,-1,0.604212,-0.102755,0.746822,0.094994,0.193052,-0.030866
"2018-06-07 01:06:49.420 +0000",1528333609.420296,0.425701,-1.270337,0.194271,0.122218,0.955201,-0.269542,0.000000,0.000000,0.000000,-1,0.697990,-0.340671,0.737310,0.072133,0.207824,-0.125355
"2018-06-07 01:06:49.430 +0000",1528333609.430371,0.431681,-1.259660,0.206029,0.128088,0.951986,-0.278055,0.000000,0.000000,0.000000,-1,0.850279,-0.591772,0.769576,0.038858,0.083506,-0.150870
"2018-06-07 01:06:49.440 +0000",1528333609.440444,0.434253,-1.248175,0.217121,0.133394,0.948408,-0.287624,0.000000,0.000000,0.000000,-1,0.898637,-0.847528,0.795612,0.000670,-0.008527,-0.140461
"2018-06-07 01:06:49.451 +0000",1528333609.450519,0.435000,-1.236013,0.227571,0.138460,0.944482,-0.297963,0.000000,0.000000,0.000000,-1,0.913426,-0.908947,0.792173,-0.032075,-0.086938,-0.110850
"2018-06-07 01:06:49.461 +0000",1528333609.460593,0.436086,-1.224224,0.238246,0.143477,0.940543,-0.307885,0.000000,0.000000,0.000000,-1,0.898452,-0.903645,0.826643,-0.054701,-0.194052,-0.073310
"2018-06-07 01:06:49.471 +0000",1528333609.470666,0.436531,-1.213234,0.248116,0.147975,0.936753,-0.317169,0.000000,0.000000,0.000000,-1,0.837159,-0.845233,0.731221,-0.178065,-0.015427,-0.034943
"2018-06-07 01:06:49.481 +0000",1528333609.480741,0.432935,-1.202814,0.253008,0.150921,0.933055,-0.326542,0.000000,0.000000,0.000000,-1,0.877387,-0.821312,0.550490,-0.210140,0.079717,-0.045482
"2018-06-07 01:06:49.491 +0000",1528333609.490815,0.424938,-1.191937,0.254083,0.152480,0.929087,-0.336965,0.000000,0.000000,0.000000,-1,0.932883,-0.908545,0.446847,-0.170973,-0.092784,-0.112925
"2018-06-07 01:06:49.501 +0000",1528333609.500889,0.414259,-1.181497,0.252478,0.152769,0.925175,-0.347436,0.000000,0.000000,0.000000,-1,0.982058,-0.907939,0.334869,-0.206342,-0.000126,-0.079490
"2018-06-07 01:06:49.511 +0000",1528333609.510962,0.400621,-1.171600,0.247848,0.151580,0.921374,-0.357901,0.000000,0.000000,0.000000,-1,0.964283,-0.942518,0.191749,-0.221053,0.088209,-0.072763
"2018-06-07 01:06:49.521 +0000",1528333609.521037,0.384382,-1.162282,0.240798,0.148962,0.917712,-0.368258,0.000000,0.000000,0.000000,-1,0.963124,-0.976056,0.073333,-0.178655,0.131956,-0.060865
"2018-06-07 01:06:49.531 +0000",1528333609.531112,0.366060,-1.152387,0.231929,0.145433,0.913737,-0.379386,0.000000,0.000000,0.000000,-1,1.010901,-1.017381,0.011791,-0.130128,0.152883,-0.019189
"2018-06-07 01:06:49.541 +0000",1528333609.541186,0.347286,-1.142515,0.222607,0.141348,0.909681,-0.390513,0.000000,0.000000,0.000000,-1,1.061556,-1.016012,-0.019514,-0.085257,0.138522,0.013071
"2018-06-07 01:06:49.551 +0000",1528333609.551260,0.329296,-1.132264,0.213092,0.137309,0.905376,-0.401796,0.000000,0.000000,0.000000,-1,1.095210,-0.898372,-0.039686,-0.035716,0.102833,0.061876
"2018-06-07 01:06:49.561 +0000",1528333609.561334,0.313469,-1.122009,0.204433,0.133789,0.900974,-0.412730,0.000000,0.000000,0.000000,-1,1.075008,-0.755778,-0.025242,0.014938,0.064648,0.102930
"2018-06-07 01:06:49.571 +0000",1528333609.571408,0.300599,-1.111631,0.197236,0.131228,0.896423,-0.423325,0.000000,0.000000,0.000000,-1,1.015682,-0.592567,0.020546,0.035185,0.031983,0.111970
"2018-06-07 01:06:49.581 +0000",1528333609.581482,0.290918,-1.102256,0.192281,0.129528,0.892228,-0.432608,0.000000,0.000000,0.000000,-1,0.937486,-0.499683,0.070475,0.033283,-0.000871,0.096701
"2018-06-07 01:06:49.592 +0000",1528333609.591556,0.283108,-1.093386,0.188475,0.128352,0.888188,-0.441189,0.000000,0.000000,0.000000,-1,0.881615,-0.418672,0.086973,0.009725,-0.025578,0.067028
"2018-06-07 01:06:49.602 +0000",1528333609.601630,0.276310,-1.084928,0.185203,0.127394,0.884270,-0.449262,0.000000,0.000000,0.000000,-1,0.838535,-0.377064,0.083966,-0.013900,-0.041451,0.015699
"2018-06-07 01:06:49.612 +0000",1528333609.611704,0.269383,-1.076461,0.181834,0.126267,0.880284,-0.457335,0.000000,0.000000,0.000000,-1,0.804053,-0.400128,0.063540,-0.046876,-0.038350,-0.026003
"2018-06-07 01:06:49.622 +0000",1528333609.621778,0.261790,-1.068818,0.178573,0.124529,0.876633,-0.464766,0.000000,0.000000,0.000000,-1,0.761239,-0.496764,0.042920,-0.074816,-0.021225,-0.017854
"2018-06-07 01:06:49.632 +0000",1528333609.631852,0.252997,-1.061374,0.175133,0.122068,0.873026,-0.472148,0.000000,0.000000,0.000000,-1,0.757302,-0.598777,0.021119,-0.077466,-0.036646,-0.004140
"2018-06-07 01:06:49.642 +0000",1528333609.641926,0.243149,-1.054084,0.171145,0.118941,0.869448,-0.479492,0.000000,0.000000,0.000000,-1,0.740857,-0.639265,-0.020912,-0.073134,-0.058245,0.019760
"2018-06-07 01:06:49.652 +0000",1528333609.652000,0.233260,-1.047023,0.166716,0.115610,0.865938,-0.486605,0.000000,0.000000,0.000000,-1,0.675976,-0.572316,-0.060367,-0.046671,-0.079470,0.063952
"2018-06-07 01:06:49.662 +0000",1528333609.662074,0.224967,-1.041216,0.162392,0.112691,0.863019,-0.492441,0.000000,0.000000,0.000000,-1,0.586728,-0.409993,-0.084430,-0.017018,-0.111447,0.081674
"2018-06-07 01:06:49.672 +0000",1528333609.672148,0.218761,-1.036265,0.158549,0.110558,0.860507,-0.497296,0.000000,0.000000,0.000000,-1,0.501449,-0.245589,-0.078379,0.005058,-0.139057,0.086987
"2018-06-07 01:06:49.682 +0000",1528333609.682222,0.214901,-1.032046,0.155097,0.109411,0.858350,-0.501262,0.000000,0.000000,0.000000,-1,0.433031,-0.028388,-0.086195,-0.006017,-0.143659,0.080394
"2018-06-07 01:06:49.692 +0000",1528333609.692296,0.211778,-1.028819,0.150809,0.108427,0.856690,-0.504306,0.000000,0.000000,0.000000,-1,0.360524,0.098799,-0.097491,-0.034315,-0.150376,0.053943
"2018-06-07 01:06:49.702 +0000",1528333609.702370,0.210296,-1.025981,0.147588,0.108187,0.855223,-0.506842,0.000000,0.000000,0.000000,-1,0.296492,0.134887,-0.106921,-0.022051,-0.164183,0.017737
"2018-06-07 01:06:49.712 +0000",1528333609.712444,0.209179,-1.023544,0.144354,0.108052,0.853957,-0.509000,0.000000,0.000000,0.000000,-1,0.262895,0.171046,-0.113192,-0.007665,-0.178817,-0.007846
"2018-06-07 01:06:49.723 +0000",1528333609.722518,0.208107,-1.021440,0.141189,0.107878,0.852861,-0.510872,0.000000,0.000000,0.000000,-1,0.230376,0.162192,-0.117446,0.009630,-0.187913,-0.019127
"2018-06-07 01:06:49.733 +0000",1528333609.732592,0.207182,-1.019251,0.138215,0.107789,0.851716,-0.512797,0.000000,0.000000,0.000000,-1,0.195658,0.160966,-0.109841,0.018630,-0.201890,-0.027013
"2018-06-07 01:06:49.743 +0000",1528333609.742666,0.206629,-1.017773,0.135565,0.107764,0.850940,-0.514088,0.000000,0.000000,0.000000,-1,0.164095,0.171833,-0.104359,0.010049,-0.200000,-0.035518
"2018-06-07 01:06:49.753 +0000",1528333609.752740,0.206370,-1.016550,0.133058,0.107844,0.850297,-0.515135,0.000000,0.000000,0.000000,-1,0.142010,0.191526,-0.103175,-0.006480,-0.178712,-0.054003
"2018-06-07 01:06:49.763 +0000",1528333609.762814,0.205529,-1.015506,0.130781,0.107592,0.849747,-0.516094,0.000000,0.000000,0.000000,-1,0.124168,0.083847,-0.091615,-0.008791,-0.145142,-0.077473
"2018-06-07 01:06:49.773 +0000",1528333609.772888,0.203719,-1.014076,0.128563,0.106903,0.848992,-0.517478,0.000000,0.000000,0.000000,-1,0.120068,-0.011665,-0.092959,-0.003891,-0.127359,-0.108957
"2018-06-07 01:06:49.783 +0000",1528333609.782962,0.200873,-1.013079,0.126208,0.105599,0.848465,-0.518609,0.000000,0.000000,0.000000,-1,0.121274,-0.121411,-0.099735,0.001472,-0.143525,-0.129356
"2018-06-07 01:06:49.793 +0000",1528333609.793036,0.197027,-1.012084,0.124368,0.103768,0.847939,-0.519838,0.000000,0.000000,0.000000,-1,0.115903,-0.254390,-0.067841,0.030692,-0.182076,-0.137937
"2018-06-07 01:06:49.803 +0000",1528333609.803110,0.192327,-1.010955,0.122911,0.101507,0.847340,-0.521260,0.000000,0.000000,0.000000,-1,0.131626,-0.374082,-0.048863,0.043192,-0.212925,-0.150112
"2018-06-07 01:06:49.813 +0000",1528333609.813184,0.186736,-1.009118,0.121859,0.098880,0.846362,-0.523348,0.000000,0.000000,0.000000,-1,0.144158,-0.494904,-0.024503,0.073453,-0.207263,-0.149702
"2018-06-07 01:06:49.823 +0000",1528333609.823258,0.180395,-1.007776,0.121205,0.095763,0.845647,-0.525081,0.000000,0.000000,0.000000,-1,0.133623,-0.599293,-0.007573,0.066835,-0.221272,-0.128132
"2018-06-07 01:06:49.833 +0000",1528333609.833332,0.173612,-1.006463,0.120343,0.092391,0.844945,-0.526812,0.000000,0.000000,0.000000,-1,0.137986,-0.587111,-0.030136,0.020081,-0.223104,-0.096494
"2018-06-07 01:06:49.843 +0000",1528333609.843407,0.167495,-1.005331,0.119304,0.089326,0.844339,-0.528310,0.000000,0.000000,0.000000,-1,0.109568,-0.500454,-0.033046,-0.006959,-0.229868,-0.088938
"2018-06-07 01:06:49.853 +0000",1528333609.853481,0.162630,-1.004157,0.119031,0.086915,0.843710,-0.529716,0.000000,0.000000,0.000000,-1,0.052523,-0.454660,0.003790,-0.014467,-0.253668,-0.101311
"2018-06-07 01:06:49.864 +0000",1528333609.863555,0.157613,-1.003778,0.119334,0.084307,0.843506,-0.530462,0.000000,0.000000,0.000000,-1,0.031437,-0.560203,0.027196,-0.060228,-0.255341,-0.173380
"2018-06-07 01:06:49.874 +0000",1528333609.873629,0.151319,-1.003395,0.119947,0.081015,0.843301,-0.531301,0.000000,0.000000,0.000000,-1,0.033579,-0.713942,0.040727,-0.082739,-0.233193,-0.249797
"2018-06-07 01:06:49.884 +0000",1528333609.883703,0.143899,-1.003078,0.120555,0.077109,0.843130,-0.532152,0.000000,0.000000,0.000000,-1,0.022140,-0.806172,0.037258,-0.051383,-0.185156,-0.245009
"2018-06-07 01:06:49.894 +0000",1528333609.893777,0.136430,-1.002344,0.121579,0.073216,0.842735,-0.533326,0.000000,0.000000,0.000000,-1,-0.002195,-0.837089,0.064115,0.009654,-0.145836,-0.212814
"2018-06-07 01:06:49.904 +0000",1528333609.903851,0.132835,-0.997463,0.126479,0.071842,0.840098,-0.537656,0.000000,0.000000,0.000000,-1,-0.027919,-0.859409,0.134026,0.064312,-0.120234,-0.207003
"2018-06-07 01:06:49.914 +0000",1528333609.913925,0.129309,-0.992647,0.131683,0.070467,0.837475,-0.541912,0.000000,0.000000,0.000000,-1,-0.055942,-0.830221,0.223453,0.069196,-0.130521,-0.200275
"2018-06-07 01:06:49.924 +0000",1528333609.923999,0.126540,-0.987995,0.137603,0.069457,0.834924,-0.545964,0.000000,0.000000,0.000000,-1,-0.114467,-0.758307,0.313075,0.054536,-0.149194,-0.182063
"2018-06-07 01:06:49.934 +0000",1528333609.934073,0.125385,-0.983521,0.144792,0.069293,0.832454,-0.549745,0.000000,0.000000,0.000000,-1,-0.216014,-0.695276,0.398467,0.032498,-0.161891,-0.158401
"2018-06-07 01:06:49.944 +0000",1528333609.944147,0.122833,-0.978816,0.151095,0.068369,0.829838,-0.553800,0.000000,0.000000,0.000000,-1,-0.326772,-0.687055,0.458981,0.047201,-0.161884,-0.185442
"2018-06-07 01:06:49.954 +0000",1528333609.954221,0.119868,-0.974102,0.157673,0.067194,0.827197,-0.557879,0.000000,0.000000,0.000000,-1,-0.467068,-0.699855,0.538862,0.079962,-0.158603,-0.204114
"2018-06-07 01:06:49.964 +0000",1528333609.964295,0.120088,-0.971057,0.166582,0.067618,0.825483,-0.560362,0.000000,0.000000,0.000000,-1,-0.575819,-0.568666,0.596502,0.034189,-0.163343,-0.191957
"2018-06-07 01:06:49.974 +0000",1528333609.974369,0.125839,-0.969708,0.178969,0.070980,0.824720,-0.561068,0.000000,0.000000,0.000000,-1,-0.583769,-0.395476,0.652958,-0.053005,-0.138212,-0.320890
"2018-06-07 01:06:49.984 +0000",1528333609.984443,0.134144,-0.974114,0.192856,0.075150,0.827205,-0.556852,0.000000,0.000000,0.000000,-1,-0.511987,-0.295705,0.730530,-0.099167,0.026555,-0.543474
"2018-06-07 01:06:49.995 +0000",1528333609.994517,0.141937,-0.977635,0.206299,0.079074,0.829178,-0.553363,0.000000,0.000000,0.000000,-1,-0.433660,-0.361059,0.660244,-0.098804,0.409836,-0.562619
"2018-06-07 01:06:50.005 +0000",1528333610.004591,0.144894,-0.981175,0.216307,0.080286,0.831151,-0.550220,0.000000,0.000000,0.000000,-1,-0.425493,-0.597260,0.446560,-0.023432,0.892528,-0.450681
"2018-06-07 01:06:50.015 +0000",1528333610.014665,0.144741,-0.983057,0.225728,0.079976,0.832196,-0.548683,0.000000,0.000000,0.000000,-1,-0.257922,-0.837593,0.539058,0.213267,1.115619,-0.559975
"2018-06-07 01:06:50.025 +0000",1528333610.024739,0.150471,-0.982144,0.240770,0.083233,0.831690,-0.548966,0.000000,0.000000,0.000000,-1,0.038147,-0.554088,0.930740,0.437199,0.902410,-0.562194
"2018-06-07 01:06:50.035 +0000",1528333610.034813,0.164720,-0.978585,0.259378,0.091531,0.829708,-0.550642,0.000000,0.000000,0.000000,-1,0.231779,0.006758,1.086821,0.307166,0.348728,-0.173525
"2018-06-07 01:06:50.045 +0000",1528333610.044887,0.180421,-0.974720,0.276064,0.100740,0.827545,-0.552287,0.000000,0.000000,0.000000,-1,0.184513,0.218080,0.924046,-0.152223,-0.212204,0.052607
"2018-06-07 01:06:50.055 +0000",1528333610.054961,0.192766,-0.972637,0.287932,0.107879,0.826374,-0.552691,0.000000,0.000000,0.000000,-1,-0.034674,0.268224,0.600924,-0.691849,-0.596744,0.272647
"2018-06-07 01:06:50.065 +0000",1528333610.065035,0.200296,-0.974433,0.294736,0.111743,0.827383,-0.550409,0.000000,0.000000,0.000000,-1,-0.324891,0.142650,0.248412,-1.153293,-0.825156,0.406335
"2018-06-07 01:06:50.075 +0000",1528333610.075109,0.199839,-0.980085,0.295419,0.110561,0.830545,-0.545867,0.000000,0.000000,0.000000,-1,-0.631078,-0.197787,-0.186438,-1.416042,-0.784799,0.369857
"2018-06-07 01:06:50.085 +0000",1528333610.085183,0.189909,-0.988744,0.289959,0.103774,0.835336,-0.539855,0.000000,0.000000,0.000000,-1,-0.822312,-0.623894,-0.534672,-1.335479,-0.571298,0.226394
"2018-06-07 01:06:50.095 +0000",1528333610.095257,0.176844,-0.997779,0.279603,0.095380,0.840269,-0.533714,0.000000,0.000000,0.000000,-1,-0.825248,-0.250874,-0.745483,-0.858121,-0.351606,0.210136
"2018-06-07 01:06:50.105 +0000",1528333610.105331,0.173481,-1.007179,0.267375,0.092217,0.845328,-0.526228,0.000000,0.000000,0.000000,-1,-0.816556,1.043677,-0.806275,-0.176232,-0.073554,0.388380
"2018-06-07 01:06:50.115 +0000",1528333610.115405,0.185202,-1.018052,0.256679,0.096681,0.851087,-0.516046,0.000000,0.000000,0.000000,-1,-1.024385,2.374312,-0.714801,0.363372,0.198535,0.654046
"2018-06-07 01:06:50.125 +0000",1528333610.125479,0.208542,-1.030638,0.249562,0.106471,0.857627,-0.503129,0.000000,0.000000,0.000000,-1,-1.180554,3.037408,-0.566227,0.540211,0.443856,0.762284
"2018-06-07 01:06:50.136 +0000",1528333610.135553,0.236021,-1.042924,0.245513,0.117782,0.863881,-0.489731,0.000000,0.000000,0.000000,-1,-1.174302,3.056595,-0.425276,0.482804,0.545818,0.625092
"2018-06-07 01:06:50.146 +0000",1528333610.145627,0.263051,-1.054824,0.244351,0.128293,0.869813,-0.476409,0.000000,0.000000,0.000000,-1,-1.114855,2.666620,-0.322209,0.391071,0.492705,0.427749
"2018-06-07 01:06:50.156 +0000",1528333610.155701,0.287064,-1.065981,0.245567,0.136938,0.875264,-0.463854,0.000000,0.000000,0.000000,-1,-1.071050,2.151452,-0.218395,0.380060,0.356533,0.285982
"2018-06-07 01:06:50.166 +0000",1528333610.165775,0.308945,-1.076709,0.249687,0.144191,0.880402,-0.451775,0.000000,0.000000,0.000000,-1,-1.086294,1.711779,-0.093789,0.399633,0.220184,0.227211
"2018-06-07 01:06:50.176 +0000",1528333610.175849,0.330671,-1.087691,0.257345,0.150823,0.885556,-0.439365,0.000000,0.000000,0.000000,-1,-1.210945,1.437559,0.032625,0.379756,0.104220,0.294742
"2018-06-07 01:06:50.186 +0000",1528333610.185923,0.356288,-1.099883,0.270080,0.158249,0.891154,-0.425206,0.000000,0.000000,0.000000,-1,-1.373731,1.436541,0.167451,0.347351,0.038091,0.363790
"2018-06-07 01:06:50.196 +0000",1528333610.195997,0.386755,-1.112763,0.286490,0.166785,0.896924,-0.409524,0.000000,0.000000,0.000000,-1,-1.477287,1.617139,0.226298,0.273446,0.031070,0.385842
"2018-06-07 01:06:50.206 +0000",1528333610.206071,0.421348,-1.125735,0.305147,0.176076,0.902584,-0.392859,0.000000,0.000000,0.000000,-1,-1.504856,1.816818,0.235547,0.185375,0.046406,0.364615
"2018-06-07 01:06:50.216 +0000",1528333610.216145,0.459080,-1.138309,0.325011,0.185726,0.907926,-0.375733,0.000000,0.000000,0.000000,-1,-1.504917,2.007896,0.219969,0.098682,0.076189,0.340455
"2018-06-07 01:06:50.226 +0000",1528333610.226219,0.499584,-1.150832,0.346386,0.195326,0.913103,-0.357895,0.000000,0.000000,0.000000,-1,-1.510116,2.106761,0.200906,0.041551,0.074247,0.295899
"2018-06-07 01:06:50.236 +0000",1528333610.236293,0.541594,-1.163033,0.369069,0.204426,0.918010,-0.339804,0.000000,0.000000,0.000000,-1,-1.497334,2.102500,0.178276,-0.004597,0.042103,0.212225
"2018-06-07 01:06:50.246 +0000",1528333610.246367,0.584651,-1.174502,0.393108,0.213037,0.922498,-0.321888,0.000000,0.000000,0.000000,-1,-1.444844,2.070780,0.185593,-0.026483,0.036624,0.125157
"2018-06-07 01:06:50.256 +0000",1528333610.256441,0.628806,-1.184526,0.418733,0.221588,0.926321,-0.304677,0.000000,0.000000,0.000000,-1,-1.365430,2.011465,0.246551,-0.003921,0.027827,0.085988
"2018-06-07 01:06:50.267 +0000",1528333610.266515,0.675598,-1.193284,0.447930,0.230514,0.929585,-0.287637,0.000000,0.000000,0.000000,-1,-1.342093,1.946281,0.361402,0.027894,0.018123,0.126992
"2018-06-07 01:06:50.277 +0000",1528333610.276589,0.725907,-1.200672,0.481530,0.240122,0.932282,-0.270538,0.000000,0.000000,0.000000,-1,-1.351424,1.855685,0.493464,0.002767,0.059936,0.155089
"2018-06-07 01:06:50.287 +0000",1528333610.286663,0.779418,-1.206373,0.519660,0.250508,0.934329,-0.253522,0.000000,0.000000,0.000000,-1,-1.332524,1.761802,0.642662,-0.036809,0.069485,0.145322
"2018-06-07 01:06:50.297 +0000",1528333610.296737,0.834700,-1.209654,0.560684,0.261860,0.935494,-0.237233,0.000000,0.000000,0.000000,-1,-1.259032,1.643894,0.798119,-0.000324,-0.048668,0.123220
"2018-06-07 01:06:50.307 +0000",1528333610.306811,0.888811,-1.210793,0.602563,0.273480,0.935896,-0.222052,0.000000,0.000000,0.000000,-1,-1.159717,1.419854,0.886519,0.002613,-0.157163,0.103369
"2018-06-07 01:06:50.317 +0000",1528333610.316885,0.938086,-1.210334,0.642109,0.284431,0.935734,-0.208566,0.000000,0.000000,0.000000,-1,-1.035373,1.150229,0.867164,-0.013252,-0.214863,0.088251
"2018-06-07 01:06:50.327 +0000",1528333610.326959,0.980349,-1.209507,0.676378,0.293632,0.935442,-0.196793,0.000000,0.000000,0.000000,-1,-0.900602,0.983310,0.708250,-0.037635,-0.222063,0.063660
"2018-06-07 01:06:50.337 +0000",1528333610.337033,1.016327,-1.209627,0.703842,0.300426,0.935484,-0.186045,0.000000,0.000000,0.000000,-1,-0.808237,1.057168,0.433963,-0.034038,-0.181425,0.044947
"2018-06-07 01:06:50.347 +0000",1528333610.347108,1.049419,-1.212234,0.725935,0.304301,0.936402,-0.174788,0.000000,0.000000,0.000000,-1,-0.796313,1.294692,0.082891,-0.016490,-0.131730,0.054305
"2018-06-07 01:06:50.357 +0000",1528333610.357182,1.081078,-1.217740,0.744341,0.305126,0.938320,-0.162640,0.000000,0.000000,0.000000,-1,-0.830709,1.460639,-0.245695,0.010822,-0.120159,0.069134
"2018-06-07 01:06:50.367 +0000",1528333610.367256,1.110997,-1.225370,0.760916,0.303430,0.940931,-0.150258,0.000000,0.000000,0.000000,-1,-0.842565,1.394588,-0.471745,0.038336,-0.158888,0.067586
"2018-06-07 01:06:50.377 +0000",1528333610.377330,1.136928,-1.234204,0.775465,0.299670,0.943886,-0.138841,0.000000,0.000000,0.000000,-1,-0.819192,1.154834,-0.613406,0.073850,-0.202797,0.049577
"2018-06-07 01:06:50.387 +0000",1528333610.387404,1.159281,-1.244314,0.787907,0.293937,0.947177,-0.128284,0.000000,0.000000,0.000000,-1,-0.767187,1.025144,-0.804291,0.021783,-0.307147,0.057285
"2018-06-07 01:06:50.397 +0000",1528333610.397478,1.180819,-1.255597,0.800586,0.286728,0.950735,-0.117853,0.000000,0.000000,0.000000,-1,-0.824237,0.913346,-0.884083,0.003524,-0.295522,0.095042
"2018-06-07 01:06:50.408 +0000",1528333610.407552,1.207076,-1.266806,0.819100,0.279746,0.954150,-0.106487,0.000000,0.000000,0.000000,-1,-0.967653,0.851130,-0.802187,0.088785,-0.190295,0.132152
"2018-06-07 01:06:50.418 +0000",1528333610.417626,1.239942,-1.277102,0.844216,0.273788,0.957181,-0.094041,0.000000,0.000000,0.000000,-1,-1.069390,0.896483,-0.689955,0.129182,-0.121152,0.134660
"2018-06-07 01:06:50.428 +0000",1528333610.427700,1.280562,-1.286320,0.876225,0.268915,0.959809,-0.080316,0.000000,0.000000,0.000000,-1,-1.170312,1.022988,-0.557052,0.171957,-0.020462,0.110635
"2018-06-07 01:06:50.438 +0000",1528333610.437774,1.330476,-1.293818,0.916094,0.265589,0.961886,-0.065084,0.000000,0.000000,0.000000,-1,-1.274723,1.191035,-0.385296,0.224569,0.092740,0.054449
"2018-06-07 01:06:50.448 +0000",1528333610.447848,1.385592,-1.299196,0.960125,0.263683,0.963343,-0.049401,0.000000,0.000000,0.000000,-1,-1.253883,1.279394,-0.237723,0.243092,0.169729,-0.071082
"2018-06-07 01:06:50.458 +0000",1528333610.457922,1.437498,-1.302793,1.000745,0.262454,0.964302,-0.035193,0.000000,0.000000,0.000000,-1,-1.071512,1.256625,-0.184425,0.198163,0.173043,-0.204476
"2018-06-07 01:06:50.468 +0000",1528333610.467996,1.480491,-1.305857,1.032737,0.260781,0.965109,-0.023614,0.000000,0.000000,0.000000,-1,-0.791758,1.182915,-0.222928,0.113899,0.140330,-0.277182
"2018-06-07 01:06:50.478 +0000",1528333610.478070,1.512711,-1.308871,1.054514,0.258502,0.965893,-0.015032,0.000000,0.000000,0.000000,-1,-0.518242,1.086158,-0.266861,0.066678,0.087314,-0.265134
"2018-06-07 01:06:50.488 +0000",1528333610.488144,1.535678,-1.311921,1.067549,0.255833,0.966679,-0.008988,0.000000,0.000000,0.000000,-1,-0.295293,1.016636,-0.294465,0.052058,0.015377,-0.188400
"2018-06-07 01:06:50.498 +0000",1528333610.498218,1.552009,-1.315049,1.073751,0.252922,0.967474,-0.004752,0.000000,0.000000,0.000000,-1,-0.145943,1.041325,-0.323778,0.038490,-0.055243,-0.079720
"2018-06-07 01:06:50.508 +0000",1528333610.508292,1.567580,-1.318566,1.078307,0.249561,0.968358,-0.000803,0.000000,0.000000,0.000000,-1,-0.121620,1.134841,-0.356906,0.025768,-0.090825,0.035669
"2018-06-07 01:06:50.518 +0000",1528333610.518366,1.587494,-1.322523,1.086068,0.245695,0.969338,0.004103,0.000000,0.000000,0.000000,-1,-0.216920,1.261039,-0.409028,0.010775,-0.084420,0.113603
"2018-06-07 01:06:50.528 +0000",1528333610.528440,1.614404,-1.327171,1.100065,0.240991,0.970470,0.010516,0.000000,0.000000,0.000000,-1,-0.361297,1.335635,-0.492380,-0.003671,-0.061870,0.123304
"2018-06-07 01:06:50.539 +0000",1528333610.538513,1.647841,-1.332386,1.120920,0.235456,0.971715,0.018177,0.000000,0.000000,0.000000,-1,-0.506603,1.293871,-0.577145,-0.003034,-0.038548,0.092709
"2018-06-07 01:06:50.549 +0000",1528333610.548587,1.687925,-1.338172,1.149709,0.228951,0.973065,0.026940,0.000000,0.000000,0.000000,-1,-0.640318,1.163193,-0.655741,0.009544,-0.009197,0.053458
"2018-06-07 01:06:50.559 +0000",1528333610.558661,1.733441,-1.344195,1.185656,0.221700,0.974436,0.036380,0.000000,0.000000,0.000000,-1,-0.744713,1.005091,-0.719425,0.038524,0.030890,0.020764
"2018-06-07 01:06:50.569 +0000",1528333610.568735,1.783134,-1.350146,1.227356,0.213947,0.975755,0.046124,0.000000,0.000000,0.000000,-1,-0.803083,0.865684,-0.760571,0.090298,0.084090,-0.005109
"2018-06-07 01:06:50.579 +0000",1528333610.578809,1.836179,-1.355754,1.273223,0.205917,0.976967,0.055967,0.000000,0.000000,0.000000,-1,-0.842708,0.815207,-0.791821,0.140976,0.166008,-0.029981
"2018-06-07 01:06:50.589 +0000",1528333610.588883,1.894607,-1.361005,1.324276,0.197431,0.978074,0.066262,0.000000,0.000000,0.000000,-1,-0.881458,0.860193,-0.812039,0.191150,0.266356,-0.068277
"2018-06-07 01:06:50.599 +0000",1528333610.598957,1.956703,-1.365361,1.378608,0.188989,0.978972,0.076782,0.000000,0.000000,0.000000,-1,-0.891172,0.890777,-0.781810,0.257910,0.355043,-0.164230
"2018-06-07 01:06:50.609 +0000",1528333610.609031,2.016344,-1.368882,1.430423,0.180966,0.979684,0.086425,0.000000,0.000000,0.000000,-1,-0.766607,0.887596,-0.726171,0.330570,0.391547,-0.324432
"2018-06-07 01:06:50.619 +0000",1528333610.619105,2.063634,-1.372335,1.469765,0.173697,0.980371,0.093282,0.000000,0.000000,0.000000,-1,-0.462581,0.851885,-0.647373,0.383569,0.344519,-0.444143
"2018-06-07 01:06:50.629 +0000",1528333610.629179,2.093772,-1.376461,1.492265,0.167302,0.981176,0.096453,0.000000,0.000000,0.000000,-1,-0.089395,0.788819,-0.544073,0.438320,0.258127,-0.463518
"2018-06-07 01:06:50.639 +0000",1528333610.639253,2.109478,-1.381415,1.499727,0.161591,0.982121,0.096573,0.000000,0.000000,0.000000,-1,0.186323,0.861792,-0.485332,0.455855,0.198818,-0.420014
"2018-06-07 01:06:50.649 +0000",1528333610.649327,2.119438,-1.387210,1.499786,0.155764,0.983195,0.095209,0.000000,0.000000,0.000000,-1,0.322822,1.020312,-0.499164,0.456572,0.175496,-0.365518
"2018-06-07 01:06:50.659 +0000",1528333610.659401,2.124861,-1.393623,1.494657,0.149879,0.984346,0.092732,0.000000,0.000000,0.000000,-1,0.426924,1.028354,-0.515514,0.472954,0.152388,-0.361180
"2018-06-07 01:06:50.669 +0000",1528333610.669475,2.121431,-1.400964,1.482704,0.144034,0.985613,0.088434,0.000000,0.000000,0.000000,-1,0.609893,0.737918,-0.507097,0.507668,0.156156,-0.376352
"2018-06-07 01:06:50.680 +0000",1528333610.679549,2.099318,-1.409247,1.456271,0.138900,0.986979,0.081108,0.000000,0.000000,0.000000,-1,0.853746,0.271898,-0.472439,0.602449,0.269292,-0.309654
"2018-06-07 01:06:50.690 +0000",1528333610.689623,2.056781,-1.417156,1.413638,0.135315,0.988221,0.071479,0.000000,0.000000,0.000000,-1,0.979957,-0.130223,-0.308248,0.749145,0.444580,-0.160926
"2018-06-07 01:06:50.700 +0000",1528333610.699697,1.999029,-1.421118,1.357706,0.135654,0.988819,0.061924,0.000000,0.000000,0.000000,-1,0.873955,-0.255206,0.106830,0.860028,0.493176,-0.051136
"2018-06-07 01:06:50.710 +0000",1528333610.709771,1.938106,-1.419626,1.298659,0.140548,0.988595,0.054079,0.000000,0.000000,0.000000,-1,0.721063,-0.255478,0.594446,0.831375,0.403937,-0.139269
"2018-06-07 01:06:50.720 +0000",1528333610.719845,1.869298,-1.414288,1.232689,0.148976,0.987778,0.045839,0.000000,0.000000,0.000000,-1,0.820887,-0.413386,0.882031,0.596126,0.272370,-0.428713
"2018-06-07 01:06:50.730 +0000",1528333610.729919,1.777796,-1.408588,1.146375,0.158048,0.986873,0.033191,0.000000,0.000000,0.000000,-1,1.329634,-0.689641,0.866079,0.176440,0.141362,-0.740650
"2018-06-07 01:06:50.740 +0000",1528333610.739993,1.646568,-1.403479,1.022007,0.166058,0.986035,0.012607,0.000000,0.000000,0.000000,-1,2.102975,-0.886655,0.715296,-0.151852,0.018680,-0.829181
"2018-06-07 01:06:50.750 +0000",1528333610.750067,1.486776,-1.397412,0.868985,0.171906,0.985007,-0.014478,0.000000,0.000000,0.000000,-1,2.710282,-0.875490,0.549364,-0.273621,-0.099997,-0.566684
"2018-06-07 01:06:50.760 +0000",1528333610.760141,1.319371,-1.387659,0.707067,0.176387,0.983277,-0.045307,0.000000,0.000000,0.000000,-1,3.032277,-0.774322,0.459642,-0.278346,-0.190583,-0.271145
"2018-06-07 01:06:50.770 +0000",1528333610.770215,1.164928,-1.372979,0.558025,0.180561,0.980498,-0.077592,0.000000,0.000000,0.000000,-1,3.132926,-0.821371,0.489393,-0.246113,-0.209914,-0.096434
"2018-06-07 01:06:50.780 +0000",1528333610.780289,1.035137,-1.352866,0.434904,0.185924,0.976347,-0.110354,0.000000,0.000000,0.000000,-1,3.118157,-0.950525,0.650398,-0.205806,-0.094557,-0.034742
"2018-06-07 01:06:50.790 +0000",1528333610.790363,0.932595,-1.328798,0.338996,0.192473,0.970861,-0.142767,0.000000,0.000000,0.000000,-1,3.133557,-0.880956,0.824820,-0.204222,0.118830,-0.077265
"2018-06-07 01:06:50.800 +0000",1528333610.800437,0.850556,-1.302135,0.263180,0.199517,0.964127,-0.175075,0.000000,0.000000,0.000000,-1,3.139586,-0.871203,0.859255,-0.224358,0.399978,-0.122487
"2018-06-07 01:06:50.811 +0000",1528333610.810511,0.781140,-1.275236,0.200662,0.205083,0.956639,-0.206838,0.000000,0.000000,0.000000,-1,3.064053,-0.942182,0.719387,-0.210821,0.643825,-0.080073
"2018-06-07 01:06:50.821 +0000",1528333610.820585,0.722194,-1.248903,0.147966,0.209126,0.948638,-0.237385,0.000000,0.000000,0.000000,-1,2.934869,-0.809065,0.565178,-0.137562,0.748612,0.095127
"2018-06-07 01:06:50.831 +0000",1528333610.830659,0.676528,-1.223615,0.104010,0.213026,0.940336,-0.265309,0.000000,0.000000,0.000000,-1,2.812894,-0.244933,0.513316,-0.059019,0.772174,0.342015
"2018-06-07 01:06:50.841 +0000",1528333610.840733,0.645950,-1.198640,0.068362,0.218887,0.931545,-0.290365,0.000000,0.000000,0.000000,-1,2.682792,0.435179,0.547862,-0.048629,0.762882,0.472036
"2018-06-07 01:06:50.851 +0000",1528333610.850807,0.627945,-1.174894,0.040694,0.226557,0.922649,-0.312075,0.000000,0.000000,0.000000,-1,2.437432,0.835046,0.580780,-0.107493,0.695363,0.495241
"2018-06-07 01:06:50.861 +0000",1528333610.860881,0.618070,-1.154059,0.021054,0.234555,0.914414,-0.329894,0.000000,0.000000,0.000000,-1,1.990299,0.746104,0.551427,-0.194516,0.575439,0.517104
"2018-06-07 01:06:50.871 +0000",1528333610.870955,0.610688,-1.137720,0.011538,0.240649,0.907679,-0.343812,0.000000,0.000000,0.000000,-1,1.376906,-0.178205,0.665237,-0.169436,0.425497,0.507920
"2018-06-07 01:06:50.881 +0000",1528333610.881029,0.602072,-1.125099,0.015766,0.244147,0.902310,-0.355287,0.000000,0.000000,0.000000,-1,0.839419,-1.518993,0.930404,0.019479,0.269946,0.506959
"2018-06-07 01:06:50.891 +0000",1528333610.891103,0.591077,-1.111001,0.024618,0.247290,0.896143,-0.368476,0.000000,0.000000,0.000000,-1,1.026040,-1.922322,1.161142,0.152688,0.069967,0.261313
"2018-06-07 01:06:50.901 +0000",1528333610.901177,0.580204,-1.091882,0.031149,0.252617,0.887496,-0.385404,0.000000,0.000000,0.000000,-1,1.545547,-1.549337,1.305174,0.222725,-0.055342,0.082578
"2018-06-07 01:06:50.911 +0000",1528333610.911251,0.568657,-1.068918,0.033360,0.259058,0.876681,-0.405364,0.000000,0.000000,0.000000,-1,1.933742,-1.304660,1.330812,0.225286,-0.067553,-0.005067
"2018-06-07 01:06:50.921 +0000",1528333610.921325,0.557269,-1.044297,0.036034,0.265763,0.864571,-0.426482,0.000000,0.000000,0.000000,-1,1.995920,-1.389519,1.450895,0.233719,-0.082299,0.020567
"2018-06-07 01:06:50.931 +0000",1528333610.931399,0.547833,-1.019480,0.042729,0.272820,0.851836,-0.447152,0.000000,0.000000,0.000000,-1,1.890737,-1.550823,1.627073,0.211830,-0.050444,0.158120
"2018-06-07 01:06:50.941 +0000",1528333610.941473,0.539766,-0.995185,0.052645,0.279759,0.838860,-0.466957,0.000000,0.000000,0.000000,-1,1.746511,-1.664533,1.684081,0.102412,0.005531,0.285088
"2018-06-07 01:06:50.952 +0000",1528333610.951547,0.531991,-0.972698,0.063843,0.285618,0.826408,-0.485254,0.000000,0.000000,0.000000,-1,1.557644,-1.705592,1.663957,-0.018925,0.038460,0.427805
"2018-06-07 01:06:50.962 +0000",1528333610.961621,0.524766,-0.951561,0.075645,0.290793,0.814323,-0.502313,0.000000,0.000000,0.000000,-1,1.461318,-1.663956,1.619122,-0.119559,0.014901,0.484124
"2018-06-07 01:06:50.972 +0000",1528333610.971695,0.516395,-0.931059,0.087053,0.294760,0.802252,-0.519141,0.000000,0.000000,0.000000,-1,1.412284,-1.811089,1.594066,-0.204154,-0.025137,0.450965
"2018-06-07 01:06:50.982 +0000",1528333610.981769,0.506123,-0.911218,0.099351,0.297072,0.790251,-0.535959,0.000000,0.000000,0.000000,-1,1.341174,-2.049456,1.582779,-0.246550,-0.033598,0.487482
"2018-06-07 01:06:50.992 +0000",1528333610.991843,0.493090,-0.892382,0.110305,0.297055,0.778569,-0.552801,0.000000,0.000000,0.000000,-1,1.309769,-2.176320,1.448026,-0.365399,-0.017399,0.517416
"2018-06-07 01:06:51.002 +0000",1528333611.001917,0.477683,-0.874979,0.119128,0.294688,0.767530,-0.569259,0.000000,0.000000,0.000000,-1,1.248352,-2.211862,1.243691,-0.446650,-0.054029,0.542053
"2018-06-07 01:06:51.012 +0000",1528333611.011991,0.460234,-0.859580,0.125903,0.289927,0.757568,-0.584836,0.000000,0.000000,0.000000,-1,1.135586,-2.259563,1.025455,-0.484827,-0.125534,0.555829
"2018-06-07 01:06:51.022 +0000",1528333611.022065,0.441727,-0.846435,0.131289,0.283287,0.748923,-0.599052,0.000000,0.000000,0.000000,-1,0.996328,-2.228385,0.827946,-0.471870,-0.204627,0.548545
"2018-06-07 01:06:51.032 +0000",1528333611.032139,0.423169,-0.835559,0.135252,0.275450,0.741671,-0.611597,0.000000,0.000000,0.000000,-1,0.823238,-2.096376,0.646942,-0.427611,-0.278872,0.548334
"2018-06-07 01:06:51.042 +0000",1528333611.042213,0.406600,-0.827097,0.138800,0.267752,0.735969,-0.621819,0.000000,0.000000,0.000000,-1,0.620112,-1.830794,0.530934,-0.366690,-0.348716,0.562798
"2018-06-07 01:06:51.052 +0000",1528333611.052287,0.393304,-0.821126,0.142850,0.261140,0.731914,-0.629371,0.000000,0.000000,0.000000,-1,0.377691,-1.545788,0.468856,-0.315065,-0.395030,0.560951
"2018-06-07 01:06:51.062 +0000",1528333611.062361,0.382547,-0.817735,0.147889,0.255280,0.729599,-0.634443,0.000000,0.000000,0.000000,-1,0.134164,-1.416778,0.433217,-0.275162,-0.395004,0.526090
"2018-06-07 01:06:51.072 +0000",1528333611.072435,0.373600,-0.816912,0.154155,0.249813,0.729036,-0.637260,0.000000,0.000000,0.000000,-1,-0.156825,-1.314369,0.426651,-0.246593,-0.382326,0.523597
"2018-06-07 01:06:51.083 +0000",1528333611.082509,0.366714,-0.818834,0.161986,0.244916,0.730350,-0.637656,0.000000,0.000000,0.000000,-1,-0.437328,-1.228415,0.424317,-0.227444,-0.375186,0.499747
"2018-06-07 01:06:51.093 +0000",1528333611.092583,0.361863,-0.823100,0.171127,0.240714,0.733257,-0.635917,0.000000,0.000000,0.000000,-1,-0.673800,-1.116023,0.429488,-0.208259,-0.366558,0.433509
"2018-06-07 01:06:51.103 +0000",1528333611.102657,0.359369,-0.829643,0.181458,0.237436,0.737690,-0.632010,0.000000,0.000000,0.000000,-1,-0.882831,-0.968337,0.413186,-0.196191,-0.356999,0.364631
"2018-06-07 01:06:51.113 +0000",1528333611.112731,0.359063,-0.838049,0.192169,0.235054,0.743340,-0.626255,0.000000,0.000000,0.000000,-1,-1.081126,-0.763380,0.359378,-0.201470,-0.350060,0.287571
"2018-06-07 01:06:51.123 +0000",1528333611.122805,0.360870,-0.848369,0.202815,0.233464,0.750203,-0.618619,0.000000,0.000000,0.000000,-1,-1.244528,-0.565888,0.276427,-0.221593,-0.330662,0.175092
"2018-06-07 01:06:51.133 +0000",1528333611.132879,0.363345,-0.860102,0.213256,0.231851,0.757909,-0.609770,0.000000,0.000000,0.000000,-1,-1.354318,-0.541759,0.208983,-0.217950,-0.302831,-0.005007
"2018-06-07 01:06:51.143 +0000",1528333611.142953,0.365203,-0.872817,0.223609,0.229523,0.766143,-0.600287,0.000000,0.000000,0.000000,-1,-1.409508,-0.627322,0.157229,-0.196167,-0.269759,-0.206475
"2018-06-07 01:06:51.153 +0000",1528333611.153027,0.365240,-0.885936,0.233079,0.225935,0.774508,-0.590839,0.000000,0.000000,0.000000,-1,-1.439247,-0.765403,0.080525,-0.166228,-0.203402,-0.348629
"2018-06-07 01:06:51.163 +0000",1528333611.163101,0.363394,-0.899354,0.241858,0.221130,0.782925,-0.581489,0.000000,0.000000,0.000000,-1,-1.432392,-0.884801,0.023153,-0.078094,-0.079922,-0.452035
"2018-06-07 01:06:51.173 +0000",1528333611.173175,0.360595,-0.912594,0.250040,0.215825,0.791093,-0.572356,0.000000,0.000000,0.000000,-1,-1.399620,-0.923036,0.000378,0.042842,0.100203,-0.502702
"2018-06-07 01:06:51.183 +0000",1528333611.183249,0.358424,-0.925559,0.258439,0.210966,0.798957,-0.563170,0.000000,0.000000,0.000000,-1,-1.356845,-0.862666,0.030574,0.159395,0.307656,-0.517778
"2018-06-07 01:06:51.193 +0000",1528333611.193323,0.357921,-0.937457,0.267096,0.207338,0.806056,-0.554333,0.000000,0.000000,0.000000,-1,-1.254443,-0.689133,0.078172,0.187682,0.510351,-0.549137
"2018-06-07 01:06:51.203 +0000",1528333611.203397,0.359749,-0.947684,0.276040,0.205438,0.812066,-0.546209,0.000000,0.000000,0.000000,-1,-1.092393,-0.490293,0.151523,0.136512,0.580741,-0.556666
"2018-06-07 01:06:51.213 +0000",1528333611.213471,0.363207,-0.955860,0.285467,0.204960,0.816810,-0.539270,0.000000,0.000000,0.000000,-1,-0.898834,-0.400102,0.238470,0.038921,0.468498,-0.517615
"2018-06-07 01:06:51.224 +0000",1528333611.223545,0.366372,-0.962187,0.294822,0.204810,0.820444,-0.533783,0.000000,0.000000,0.000000,-1,-0.732083,-0.477758,0.280888,-0.113578,0.253928,-0.440857
"2018-06-07 01:06:51.234 +0000",1528333611.233619,0.367003,-0.967372,0.302887,0.203618,0.823397,-0.529676,0.000000,0.000000,0.000000,-1,-0.614900,-0.620990,0.221042,-0.276509,0.027891,-0.307344
"2018-06-07 01:06:51.244 +0000",1528333611.243693,0.365460,-0.972115,0.308616,0.201402,0.826080,-0.526336,0.000000,0.000000,0.000000,-1,-0.542577,-0.611510,0.102583,-0.367921,-0.176071,-0.181870
"2018-06-07 01:06:51.254 +0000",1528333611.253767,0.363816,-0.977093,0.312560,0.199071,0.828875,-0.522817,0.000000,0.000000,0.000000,-1,-0.540996,-0.425598,0.010615,-0.344502,-0.346026,-0.115840
"2018-06-07 01:06:51.264 +0000",1528333611.263841,0.365313,-0.982314,0.314579,0.198304,0.831784,-0.518469,0.000000,0.000000,0.000000,-1,-0.522923,0.124839,-0.085709,-0.355577,-0.432462,-0.163278
"2018-06-07 01:06:51.274 +0000",1528333611.273915,0.375636,-0.987751,0.316454,0.201984,0.834790,-0.512180,0.000000,0.000000,0.000000,-1,-0.551029,1.158962,-0.109527,-0.468464,-0.357251,-0.106030
"2018-06-07 01:06:51.284 +0000",1528333611.283989,0.391544,-0.996032,0.317065,0.207461,0.839321,-0.502495,0.000000,0.000000,0.000000,-1,-0.884341,1.499472,-0.378836,-0.835482,0.190983,0.268593
"2018-06-07 01:06:51.294 +0000",1528333611.294063,0.394692,-1.010378,0.310762,0.204390,0.847033,-0.490673,0.000000,0.000000,0.000000,-1,-1.267213,0.596514,-1.016292,-1.142592,1.107999,0.114361
"2018-06-07 01:06:51.304 +0000",1528333611.304137,0.384326,-1.027502,0.293729,0.193826,0.856010,-0.479248,0.000000,0.000000,0.000000,-1,-1.149503,0.509110,-1.562168,-0.959253,1.791802,-0.157075
"2018-06-07 01:06:51.314 +0000",1528333611.314211,0.373471,-1.039467,0.265884,0.184862,0.862134,-0.471753,0.000000,0.000000,0.000000,-1,-0.362117,1.528735,-1.777210,-0.339235,1.794375,0.173214
"2018-06-07 01:06:51.324 +0000",1528333611.324285,0.365638,-1.043445,0.238429,0.179933,0.864143,-0.469979,0.000000,0.000000,0.000000,-1,0.249211,1.528161,-1.234335,0.473815,0.850136,0.146051
"2018-06-07 01:06:51.334 +0000",1528333611.334359,0.369731,-1.041838,0.223836,0.182357,0.863333,-0.470533,0.000000,0.000000,0.000000,-1,0.429871,1.766861,-0.443455,0.882676,-0.068183,0.134016
"2018-06-07 01:06:51.344 +0000",1528333611.344433,0.388328,-1.039391,0.218790,0.191875,0.862096,-0.469015,0.000000,0.000000,0.000000,-1,0.280259,2.443245,-0.056064,0.607487,-0.455174,0.548651
"2018-06-07 01:06:51.355 +0000",1528333611.354507,0.413456,-1.038477,0.219181,0.203915,0.861632,-0.464767,0.000000,0.000000,0.000000,-1,0.004080,2.387020,0.079936,0.104816,-0.612960,0.740494
"2018-06-07 01:06:51.365 +0000",1528333611.364581,0.435952,-1.039991,0.221731,0.213766,0.862400,-0.458879,0.000000,0.000000,0.000000,-1,-0.249168,1.889277,0.019908,-0.335104,-0.618366,0.641802
"2018-06-07 01:06:51.375 +0000",1528333611.374655,0.452492,-1.044850,0.221368,0.219492,0.864849,-0.451508,0.000000,0.000000,0.000000,-1,-0.490000,1.633148,-0.319114,-0.562449,-0.597057,0.759277
"2018-06-07 01:06:51.385 +0000",1528333611.384729,0.465054,-1.054513,0.217197,0.221388,0.869660,-0.441224,0.000000,0.000000,0.000000,-1,-0.845375,1.595240,-0.677676,-0.498518,-0.588929,0.982423
"2018-06-07 01:06:51.395 +0000",1528333611.394803,0.475742,-1.068783,0.212313,0.220385,0.876616,-0.427756,0.000000,0.000000,0.000000,-1,-1.254248,1.452306,-0.895511,-0.314013,-0.489363,1.142646
"2018-06-07 01:06:51.405 +0000",1528333611.404877,0.486648,-1.087090,0.209438,0.217494,0.885278,-0.411072,0.000000,0.000000,0.000000,-1,-1.656822,1.289043,-0.973586,-0.164439,-0.272912,1.160675
"2018-06-07 01:06:51.415 +0000",1528333611.414951,0.501968,-1.110768,0.213117,0.213619,0.896040,-0.389204,0.000000,0.000000,0.000000,-1,-2.333195,1.190532,-0.966946,-0.017681,0.047259,1.156507
"2018-06-07 01:06:51.425 +0000",1528333611.425025,0.528385,-1.141439,0.226035,0.209866,0.909234,-0.359514,0.000000,0.000000,0.000000,-1,-3.051575,1.620208,-1.026438,0.102603,0.323265,1.114321
"2018-06-07 01:06:51.435 +0000",1528333611.435099,0.572049,-1.176792,0.246241,0.207820,0.923379,-0.322771,0.000000,0.000000,0.000000,-1,-3.505213,2.838162,-1.190733,0.213429,0.529700,0.934313
"2018-06-07 01:06:51.445 +0000",1528333611.445173,0.636845,-1.213668,0.272691,0.207885,0.936904,-0.281058,0.000000,0.000000,0.000000,-1,-3.542551,4.376516,-1.305569,0.400376,0.640931,0.537314
"2018-06-07 01:06:51.455 +0000",1528333611.455247,0.717414,-1.246662,0.302948,0.209386,0.947927,-0.239984,0.000000,0.000000,0.000000,-1,-3.007289,5.319584,-1.231983,0.533823,0.709437,-0.063803
"2018-06-07 01:06:51.465 +0000",1528333611.465321,0.793057,-1.270107,0.329217,0.211028,0.955132,-0.207820,0.000000,0.000000,0.000000,-1,-1.963073,4.829385,-0.921712,0.467210,0.630240,-0.680821
"2018-06-07 01:06:51.475 +0000",1528333611.475395,0.846889,-1.282117,0.345121,0.213294,0.958621,-0.188553,0.000000,0.000000,0.000000,-1,-0.903701,3.458035,-0.424725,0.254617,0.314725,-0.925980
"2018-06-07 01:06:51.485 +0000",1528333611.485469,0.879911,-1.285435,0.355164,0.216950,0.959560,-0.179380,0.000000,0.000000,0.000000,-1,-0.314424,1.959315,0.028866,0.082717,0.019505,-0.694903
"2018-06-07 01:06:51.496 +0000",1528333611.495543,0.898842,-1.285389,0.362621,0.220342,0.959547,-0.175269,0.000000,0.000000,0.000000,-1,-0.131578,0.969170,0.139585,-0.092016,-0.063490,-0.226098
"2018-06-07 01:06:51.506 +0000",1528333611.505617,0.910086,-1.285591,0.366528,0.222145,0.959604,-0.172661,0.000000,0.000000,0.000000,-1,-0.046480,0.709685,0.032147,-0.202950,-0.084772,0.135536
"2018-06-07 01:06:51.516 +0000",1528333611.515691,0.913254,-1.285932,0.362249,0.222432,0.959700,-0.171756,0.000000,0.000000,0.000000,-1,0.117678,0.728454,-0.146732,-0.180378,-0.165114,0.227160
"2018-06-07 01:06:51.526 +0000",1528333611.525765,0.908439,-1.286758,0.349589,0.220977,0.959931,-0.172338,0.000000,0.000000,0.000000,-1,0.255594,0.720800,-0.324551,-0.110732,-0.239396,0.255605
"2018-06-07 01:06:51.536 +0000",1528333611.535839,0.898833,-1.288522,0.332945,0.217985,0.960425,-0.173398,0.000000,0.000000,0.000000,-1,0.238811,0.593931,-0.448581,-0.023939,-0.267676,0.278927
"2018-06-07 01:06:51.546 +0000",1528333611.545912,0.891682,-1.292194,0.319766,0.213994,0.961441,-0.172736,0.000000,0.000000,0.000000,-1,0.021923,0.545291,-0.511689,0.094386,-0.249176,0.277945
"2018-06-07 01:06:51.556 +0000",1528333611.555986,0.893872,-1.298109,0.315067,0.209935,0.963051,-0.168702,0.000000,0.000000,0.000000,-1,-0.375022,0.717769,-0.543623,0.180186,-0.180595,0.291977
"2018-06-07 01:06:51.566 +0000",1528333611.566061,0.910281,-1.306652,0.323161,0.206171,0.965316,-0.160181,0.000000,0.000000,0.000000,-1,-0.793356,0.892176,-0.526023,0.244665,-0.108581,0.285211
"2018-06-07 01:06:51.576 +0000",1528333611.576134,0.940517,-1.316763,0.344406,0.203024,0.967907,-0.148115,0.000000,0.000000,0.000000,-1,-1.103827,0.983234,-0.456206,0.292292,-0.067165,0.242033
"2018-06-07 01:06:51.586 +0000",1528333611.586208,0.984809,-1.327545,0.379300,0.200676,0.970560,-0.133201,0.000000,0.000000,0.000000,-1,-1.322062,1.044787,-0.357643,0.313438,-0.049112,0.195441
"2018-06-07 01:06:51.596 +0000",1528333611.596282,1.039421,-1.337472,0.424508,0.199331,0.972903,-0.117160,0.000000,0.000000,0.000000,-1,-1.444788,1.062634,-0.244368,0.315943,-0.038684,0.130008
"2018-06-07 01:06:51.606 +0000",1528333611.606356,1.104208,-1.345893,0.479805,0.199174,0.974816,-0.100321,0.000000,0.000000,0.000000,-1,-1.508967,1.098068,-0.097830,0.297514,-0.042366,0.052438
"2018-06-07 01:06:51.616 +0000",1528333611.616430,1.179412,-1.352114,0.544904,0.200539,0.976184,-0.082757,0.000000,0.000000,0.000000,-1,-1.560763,1.182842,0.071412,0.259804,-0.048389,-0.039328
"2018-06-07 01:06:51.627 +0000",1528333611.626504,1.262208,-1.355953,0.617055,0.203124,0.977010,-0.064750,0.000000,0.000000,0.000000,-1,-1.521894,1.220822,0.202662,0.215852,-0.033025,-0.167382
"2018-06-07 01:06:51.637 +0000",1528333611.636578,1.338143,-1.357075,0.682748,0.206384,0.977248,-0.048901,0.000000,0.000000,0.000000,-1,-1.297609,1.138805,0.276129,0.168692,-0.007674,-0.312747
"2018-06-07 01:06:51.647 +0000",1528333611.646652,1.396559,-1.356429,0.732171,0.209509,0.977111,-0.036878,0.000000,0.000000,0.000000,-1,-0.901364,0.954434,0.263929,0.100931,0.017838,-0.405016
"2018-06-07 01:06:51.657 +0000",1528333611.656726,1.432127,-1.355264,0.760534,0.211814,0.976863,-0.029562,0.000000,0.000000,0.000000,-1,-0.470947,0.719944,0.184817,0.031167,0.034185,-0.371882
"2018-06-07 01:06:51.667 +0000",1528333611.666800,1.451608,-1.354488,0.774304,0.213103,0.976696,-0.025520,0.000000,0.000000,0.000000,-1,-0.188626,0.566317,0.095521,-0.015166,0.023410,-0.211098
"2018-06-07 01:06:51.677 +0000",1528333611.676874,1.462827,-1.354350,0.779247,0.213510,0.976667,-0.023143,0.000000,0.000000,0.000000,-1,-0.089274,0.677864,0.000961,-0.050150,0.012438,-0.007161
"2018-06-07 01:06:51.687 +0000",1528333611.686948,1.476629,-1.355166,0.784477,0.213015,0.976842,-0.020119,0.000000,0.000000,0.000000,-1,-0.139199,0.928414,-0.093928,-0.058230,0.002879,0.128822
"2018-06-07 01:06:51.697 +0000",1528333611.697022,1.498573,-1.357096,0.795717,0.211525,0.977253,-0.015304,0.000000,0.000000,0.000000,-1,-0.298260,1.134781,-0.196226,-0.049965,-0.008259,0.180587
"2018-06-07 01:06:51.707 +0000",1528333611.707096,1.532849,-1.360122,0.818393,0.208969,0.977890,-0.007934,0.000000,0.000000,0.000000,-1,-0.512890,1.204854,-0.294490,-0.035369,-0.006897,0.175323
"2018-06-07 01:06:51.717 +0000",1528333611.717170,1.577091,-1.364044,0.851561,0.205278,0.978703,0.001292,0.000000,0.000000,0.000000,-1,-0.746179,1.146504,-0.409219,-0.036806,0.024257,0.132573
"2018-06-07 01:06:51.727 +0000",1528333611.727244,1.632012,-1.368797,0.897412,0.200252,0.979667,0.012274,0.000000,0.000000,0.000000,-1,-0.961377,0.932368,-0.535200,-0.048809,0.065544,0.043879
"2018-06-07 01:06:51.737 +0000",1528333611.737319,1.696492,-1.374132,0.956167,0.193857,0.980724,0.024496,0.000000,0.000000,0.000000,-1,-1.139646,0.596511,-0.668073,-0.036997,0.090535,-0.078787
"2018-06-07 01:06:51.747 +0000",1528333611.747392,1.768784,-1.379861,1.026346,0.186070,0.981827,0.037329,0.000000,0.000000,0.000000,-1,-1.208614,0.246715,-0.807691,0.011638,0.102508,-0.189428
"2018-06-07 01:06:51.757 +0000",1528333611.757466,1.840027,-1.385811,1.098403,0.177307,0.982939,0.048924,0.000000,0.000000,0.000000,-1,-1.140419,-0.006281,-0.903239,0.104096,0.114473,-0.260045
"2018-06-07 01:06:51.768 +0000",1528333611.767540,1.909886,-1.391687,1.170159,0.168009,0.984003,0.059259,0.000000,0.000000,0.000000,-1,-1.027609,-0.076029,-0.949953,0.221929,0.146322,-0.296487
"2018-06-07 01:06:51.778 +0000",1528333611.777614,1.978167,-1.397106,1.239494,0.158676,0.984954,0.068470,0.000000,0.000000,0.000000,-1,-0.890267,0.041737,-0.931639,0.347336,0.185517,-0.344776
"2018-06-07 01:06:51.788 +0000",1528333611.787688,2.043227,-1.401982,1.303279,0.149610,0.985785,0.076455,0.000000,0.000000,0.000000,-1,-0.688145,0.281414,-0.884077,0.445147,0.212503,-0.387872
"2018-06-07 01:06:51.798 +0000",1528333611.797762,2.097522,-1.406897,1.353411,0.141051,0.986598,0.082025,0.000000,0.000000,0.000000,-1,-0.422254,0.544169,-0.800021,0.496537,0.212300,-0.419611
"2018-06-07 01:06:51.808 +0000",1528333611.807837,2.139737,-1.411857,1.389102,0.133340,0.987396,0.085267,0.000000,0.000000,0.000000,-1,-0.168054,0.725539,-0.688208,0.511756,0.208756,-0.415925
"2018-06-07 01:06:51.818 +0000",1528333611.817910,2.169367,-1.416850,1.411458,0.126680,0.988174,0.086401,0.000000,0.000000,0.000000,-1,0.028515,0.748663,-0.574573,0.507933,0.227540,-0.399466
"2018-06-07 01:06:51.828 +0000",1528333611.827984,2.189614,-1.421079,1.424383,0.121500,0.988813,0.086523,0.000000,0.000000,0.000000,-1,0.119757,0.739482,-0.418840,0.488531,0.231402,-0.376226
"2018-06-07 01:06:51.838 +0000",1528333611.838058,2.198925,-1.424580,1.425716,0.117887,0.989329,0.085615,0.000000,0.000000,0.000000,-1,0.219249,0.811518,-0.253209,0.447223,0.199880,-0.383269
"2018-06-07 01:06:51.848 +0000",1528333611.848132,2.187695,-1.428358,1.406531,0.115792,0.989873,0.082124,0.000000,0.000000,0.000000,-1,0.538625,0.733891,-0.116484,0.417900,0.162334,-0.477921
"2018-06-07 01:06:51.858 +0000",1528333611.858206,2.138646,-1.434357,1.352083,0.114670,0.990707,0.073153,0.000000,0.000000,0.000000,-1,1.105770,0.380686,-0.068255,0.430496,0.227372,-0.521196
"2018-06-07 01:06:51.868 +0000",1528333611.868280,2.043534,-1.441539,1.255711,0.114760,0.991658,0.058690,0.000000,0.000000,0.000000,-1,1.564325,-0.075189,0.045539,0.471178,0.405452,-0.392933
"2018-06-07 01:06:51.878 +0000",1528333611.878355,1.915439,-1.444752,1.130270,0.118317,0.992067,0.042472,0.000000,0.000000,0.000000,-1,1.553120,-0.447988,0.456452,0.552398,0.476286,-0.202766
"2018-06-07 01:06:51.888 +0000",1528333611.888428,1.778473,-1.440710,0.999030,0.126931,0.991551,0.026746,0.000000,0.000000,0.000000,-1,1.492828,-0.748854,0.959117,0.578315,0.329464,-0.207166
"2018-06-07 01:06:51.899 +0000",1528333611.898502,1.632157,-1.431138,0.860764,0.138942,0.990264,0.008536,0.000000,0.000000,0.000000,-1,1.798653,-0.966524,1.236375,0.423176,0.094865,-0.365607
"2018-06-07 01:06:51.909 +0000",1528333611.908576,1.475547,-1.418080,0.712429,0.151433,0.988362,-0.014468,0.000000,0.000000,0.000000,-1,2.319770,-0.968287,1.216891,0.083202,-0.084355,-0.429762
"2018-06-07 01:06:51.919 +0000",1528333611.918650,1.317380,-1.401627,0.561418,0.162985,0.985725,-0.042210,0.000000,0.000000,0.000000,-1,2.734812,-0.886867,1.186059,-0.163336,-0.224784,-0.320979
"2018-06-07 01:06:51.929 +0000",1528333611.928724,1.178040,-1.380671,0.428621,0.174590,0.981981,-0.072329,0.000000,0.000000,0.000000,-1,2.929755,-0.851407,1.236271,-0.237395,-0.251512,-0.121061
"2018-06-07 01:06:51.939 +0000",1528333611.938798,1.064296,-1.355626,0.320555,0.186705,0.976940,-0.103579,0.000000,0.000000,0.000000,-1,3.055072,-0.750406,1.318027,-0.278624,-0.116543,-0.005033
"2018-06-07 01:06:51.949 +0000",1528333611.948872,0.974839,-1.326857,0.234781,0.199890,0.970394,-0.135569,0.000000,0.000000,0.000000,-1,3.192705,-0.530907,1.422688,-0.289504,0.148823,-0.013693
"2018-06-07 01:06:51.959 +0000",1528333611.958946,0.905389,-1.295980,0.165976,0.213477,0.962475,-0.167538,0.000000,0.000000,0.000000,-1,3.211221,-0.214746,1.434322,-0.303244,0.527897,-0.004795
"2018-06-07 01:06:51.969 +0000",1528333611.969020,0.854793,-1.266490,0.113882,0.226052,0.954055,-0.196670,0.000000,0.000000,0.000000,-1,2.909884,-0.027136,1.260227,-0.335945,0.918442,0.099593
"2018-06-07 01:06:51.979 +0000",1528333611.979095,0.818659,-1.241139,0.074334,0.236389,0.946153,-0.221164,0.000000,0.000000,0.000000,-1,2.487512,0.197920,0.976803,-0.324020,1.080519,0.222232
"2018-06-07 01:06:51.989 +0000",1528333611.989168,0.794207,-1.220842,0.045853,0.244561,0.939388,-0.240290,0.000000,0.000000,0.000000,-1,1.962080,0.202952,0.737077,-0.277794,0.954746,0.375422
"2018-06-07 01:06:51.999 +0000",1528333611.999242,0.777096,-1.205460,0.027883,0.250517,0.934004,-0.254712,0.000000,0.000000,0.000000,-1,1.357229,-0.151744,0.625563,-0.223051,0.743365,0.538739
"2018-06-07 01:06:52.009 +0000",1528333612.009316,0.770187,-1.195080,0.029166,0.255488,0.930245,-0.263381,0.000000,0.000000,0.000000,-1,0.500462,-1.009041,0.828328,-0.086177,0.557289,0.683822
"2018-06-07 01:06:52.019 +0000",1528333612.019390,0.772026,-1.184766,0.046043,0.262651,0.926411,-0.269771,0.000000,0.000000,0.000000,-1,0.308364,-1.457158,1.279235,0.197951,0.343868,0.378612
"2018-06-07 01:06:52.029 +0000",1528333612.029464,0.773257,-1.169038,0.065212,0.273127,0.920375,-0.279841,0.000000,0.000000,0.000000,-1,0.799108,-1.731968,1.692511,0.432531,0.220601,-0.124501
"2018-06-07 01:06:52.040 +0000",1528333612.039538,0.764291,-1.147128,0.074106,0.284497,0.911587,-0.296767,0.000000,0.000000,0.000000,-1,1.503380,-1.618253,1.743936,0.461444,0.175434,-0.175080
"2018-06-07 01:06:52.050 +0000",1528333612.049613,0.746368,-1.122541,0.069739,0.294264,0.901205,-0.318180,0.000000,0.000000,0.000000,-1,1.994712,-1.346770,1.466084,0.254656,0.131724,0.013981
"2018-06-07 01:06:52.060 +0000",1528333612.059686,0.722826,-1.098378,0.059120,0.301012,0.890471,-0.341253,0.000000,0.000000,0.000000,-1,2.108219,-1.419957,1.192397,0.099409,0.042360,0.223867
"2018-06-07 01:06:52.070 +0000",1528333612.069760,0.696166,-1.075636,0.047297,0.304719,0.879892,-0.364603,0.000000,0.000000,0.000000,-1,2.118406,-1.726490,0.997866,-0.070161,-0.016840,0.257791
"2018-06-07 01:06:52.080 +0000",1528333612.079834,0.665272,-1.053881,0.035128,0.305057,0.869348,-0.388812,0.000000,0.000000,0.000000,-1,2.010453,-2.096231,0.876565,-0.212222,-0.083367,0.257174
"2018-06-07 01:06:52.090 +0000",1528333612.089908,0.634313,-1.033770,0.025884,0.303176,0.859234,-0.412069,0.000000,0.000000,0.000000,-1,1.816700,-2.326018,0.832239,-0.296020,-0.131771,0.357992
"2018-06-07 01:06:52.100 +0000",1528333612.099982,0.605234,-1.015181,0.019564,0.300104,0.849576,-0.433772,0.000000,0.000000,0.000000,-1,1.660460,-2.332901,0.799232,-0.312464,-0.162106,0.450999
"2018-06-07 01:06:52.110 +0000",1528333612.110056,0.579527,-0.997785,0.016083,0.296904,0.840272,-0.453641,0.000000,0.000000,0.000000,-1,1.559440,-2.260793,0.814732,-0.284041,-0.174898,0.478589
"2018-06-07 01:06:52.120 +0000",1528333612.120131,0.557212,-0.980590,0.015793,0.294306,0.830826,-0.472347,0.000000,0.000000,0.000000,-1,1.407054,-2.171774,0.951947,-0.219324,-0.144120,0.558055
"2018-06-07 01:06:52.130 +0000",1528333612.130204,0.540229,-0.963335,0.019850,0.293573,0.821100,-0.489500,0.000000,0.000000,0.000000,-1,1.333057,-1.956438,1.123770,-0.211099,-0.119882,0.595304
"2018-06-07 01:06:52.140 +0000",1528333612.140278,0.527715,-0.946071,0.025532,0.294519,0.811124,-0.505308,0.000000,0.000000,0.000000,-1,1.293673,-1.615249,1.149593,-0.300226,-0.084653,0.588163
"2018-06-07 01:06:52.150 +0000",1528333612.150352,0.517853,-0.930402,0.032620,0.295777,0.801860,-0.519168,0.000000,0.000000,0.000000,-1,1.165631,-1.557340,1.129617,-0.332109,-0.075603,0.579074
"2018-06-07 01:06:52.160 +0000",1528333612.160426,0.507724,-0.915842,0.038932,0.296149,0.793076,-0.532284,0.000000,0.000000,0.000000,-1,1.041557,-1.482497,1.001042,-0.381370,-0.077240,0.525646
"2018-06-07 01:06:52.171 +0000",1528333612.170500,0.497787,-0.903508,0.044471,0.295494,0.785503,-0.543754,0.000000,0.000000,0.000000,-1,0.865160,-1.412089,0.847833,-0.419914,-0.100932,0.526893
"2018-06-07 01:06:52.181 +0000",1528333612.180574,0.486281,-0.893477,0.048024,0.292886,0.779256,-0.554056,0.000000,0.000000,0.000000,-1,0.745211,-1.421276,0.602834,-0.448464,-0.139210,0.489862
"2018-06-07 01:06:52.191 +0000",1528333612.190648,0.474017,-0.886153,0.050265,0.288666,0.774645,-0.562669,0.000000,0.000000,0.000000,-1,0.589988,-1.385865,0.432265,-0.455201,-0.215349,0.480104
"2018-06-07 01:06:52.201 +0000",1528333612.200722,0.462504,-0.880507,0.052038,0.284116,0.771062,-0.569861,0.000000,0.000000,0.000000,-1,0.399473,-1.237766,0.329870,-0.433362,-0.313481,0.495947
"2018-06-07 01:06:52.211 +0000",1528333612.210796,0.453140,-0.877060,0.054294,0.279930,0.768862,-0.574882,0.000000,0.000000,0.000000,-1,0.190772,-1.056948,0.266336,-0.417259,-0.392794,0.494667
"2018-06-07 01:06:52.221 +0000",1528333612.220870,0.446414,-0.875765,0.057683,0.276486,0.768034,-0.577650,0.000000,0.000000,0.000000,-1,-0.036123,-0.884054,0.247997,-0.380322,-0.451154,0.471006
"2018-06-07 01:06:52.231 +0000",1528333612.230944,0.443103,-0.877212,0.063140,0.274095,0.768959,-0.577557,0.000000,0.000000,0.000000,-1,-0.300066,-0.714714,0.267380,-0.328478,-0.490792,0.435086
"2018-06-07 01:06:52.241 +0000",1528333612.241018,0.441923,-0.880587,0.069952,0.272302,0.771113,-0.575531,0.000000,0.000000,0.000000,-1,-0.546733,-0.614264,0.233816,-0.285013,-0.491648,0.354462
"2018-06-07 01:06:52.251 +0000",1528333612.251092,0.442563,-0.886419,0.077553,0.270740,0.774813,-0.571283,0.000000,0.000000,0.000000,-1,-0.790020,-0.485124,0.166983,-0.253879,-0.478182,0.286691
"2018-06-07 01:06:52.261 +0000",1528333612.261166,0.445074,-0.894878,0.085614,0.269342,0.780133,-0.564665,0.000000,0.000000,0.000000,-1,-1.033077,-0.337185,0.067935,-0.223672,-0.470730,0.220946
"2018-06-07 01:06:52.271 +0000",1528333612.271240,0.448980,-0.906253,0.093913,0.267677,0.787198,-0.555578,0.000000,0.000000,0.000000,-1,-1.251843,-0.241827,-0.042078,-0.186439,-0.441144,0.108709
"2018-06-07 01:06:52.281 +0000",1528333612.281314,0.453281,-0.919295,0.102171,0.265545,0.795174,-0.545145,0.000000,0.000000,0.000000,-1,-1.422345,-0.219951,-0.136281,-0.116299,-0.379845,-0.032400
"2018-06-07 01:06:52.291 +0000",1528333612.291389,0.456979,-0.933510,0.110044,0.262544,0.803714,-0.533961,0.000000,0.000000,0.000000,-1,-1.477344,-0.271361,-0.216978,-0.005861,-0.280810,-0.193135
"2018-06-07 01:06:52.301 +0000",1528333612.301462,0.459184,-0.947455,0.116873,0.258728,0.811932,-0.523283,0.000000,0.000000,0.000000,-1,-1.386600,-0.348864,-0.261512,0.130783,-0.124585,-0.343477
"2018-06-07 01:06:52.312 +0000",1528333612.311536,0.459972,-0.960410,0.122938,0.254449,0.819427,-0.513609,0.000000,0.000000,0.000000,-1,-1.230177,-0.445125,-0.239562,0.261954,0.074387,-0.428743
"2018-06-07 01:06:52.322 +0000",1528333612.321610,0.459136,-0.971092,0.128763,0.250126,0.825502,-0.505946,0.000000,0.000000,0.000000,-1,-1.051104,-0.597588,-0.151137,0.329830,0.291884,-0.500935
"2018-06-07 01:06:52.332 +0000",1528333612.331684,0.457247,-0.979851,0.135155,0.245968,0.830415,-0.499910,0.000000,0.000000,0.000000,-1,-0.900611,-0.744758,-0.034664,0.313282,0.498550,-0.551725
"2018-06-07 01:06:52.342 +0000",1528333612.341758,0.455513,-0.986816,0.142838,0.242550,0.834275,-0.495130,0.000000,0.000000,0.000000,-1,-0.777726,-0.821876,0.112193,0.271778,0.604812,-0.566531
"2018-06-07 01:06:52.352 +0000",1528333612.351832,0.455045,-0.992336,0.152556,0.240291,0.837305,-0.491100,0.000000,0.000000,0.000000,-1,-0.663502,-0.871700,0.289268,0.201954,0.538488,-0.540562
"2018-06-07 01:06:52.362 +0000",1528333612.361907,0.455811,-0.995808,0.164068,0.239386,0.839199,-0.488302,0.000000,0.000000,0.000000,-1,-0.555436,-0.881922,0.442808,0.051233,0.356175,-0.468409
"2018-06-07 01:06:52.372 +0000",1528333612.371980,0.456681,-0.998063,0.175978,0.238976,0.840423,-0.486394,0.000000,0.000000,0.000000,-1,-0.464274,-0.912540,0.474780,-0.144829,0.156129,-0.365245
"2018-06-07 01:06:52.382 +0000",1528333612.382054,0.455656,-0.999982,0.185855,0.237767,0.841461,-0.485189,0.000000,0.000000,0.000000,-1,-0.381439,-0.928289,0.358375,-0.313557,-0.017242,-0.275293
"2018-06-07 01:06:52.392 +0000",1528333612.392128,0.452374,-1.001444,0.192423,0.235635,0.842250,-0.484860,0.000000,0.000000,0.000000,-1,-0.206246,-0.842773,0.238825,-0.398584,-0.151714,-0.251041
"2018-06-07 01:06:52.402 +0000",1528333612.402202,0.449344,-1.001801,0.195760,0.234035,0.842443,-0.485301,0.000000,0.000000,0.000000,-1,-0.085843,-0.469739,0.106255,-0.491252,-0.229589,-0.074284
"2018-06-07 01:06:52.412 +0000",1528333612.412276,0.448130,-1.002816,0.195412,0.233075,0.842989,-0.484813,0.000000,0.000000,0.000000,-1,-0.089788,0.038396,-0.126749,-0.755810,-0.197680,0.086818
"2018-06-07 01:06:52.422 +0000",1528333612.422350,0.444562,-1.006914,0.190067,0.229856,0.845187,-0.482519,0.000000,0.000000,0.000000,-1,-0.324858,0.015410,-0.560838,-1.182599,0.123396,0.119040
"2018-06-07 01:06:52.432 +0000",1528333612.432425,0.425428,-1.016979,0.175785,0.217059,0.850523,-0.479056,0.000000,0.000000,0.000000,-1,-0.611606,-0.961671,-1.260041,-1.506168,0.679018,-0.194498
"2018-06-07 01:06:52.442 +0000",1528333612.442498,0.390002,-1.029315,0.149253,0.195952,0.856946,-0.476703,0.000000,0.000000,0.000000,-1,-0.547730,-1.244302,-1.883808,-1.224288,1.061694,-0.414044
"2018-06-07 01:06:52.453 +0000",1528333612.452572,0.355151,-1.040802,0.113304,0.175788,0.862810,-0.473979,0.000000,0.000000,0.000000,-1,-0.353485,-0.031758,-2.161469,-0.454719,1.193266,0.257289
"2018-06-07 01:06:52.463 +0000",1528333612.462646,0.333507,-1.050063,0.077383,0.162866,0.867454,-0.470103,0.000000,0.000000,0.000000,-1,-0.219129,1.238726,-1.896699,0.377127,0.879189,0.700251
"2018-06-07 01:06:52.473 +0000",1528333612.472720,0.330929,-1.056582,0.051334,0.159813,0.870680,-0.465162,0.000000,0.000000,0.000000,-1,-0.128968,2.247017,-1.178669,1.004875,0.271471,0.650297
"2018-06-07 01:06:52.483 +0000",1528333612.482794,0.350033,-1.060337,0.041627,0.167547,0.872520,-0.458951,0.000000,0.000000,0.000000,-1,-0.227083,2.819697,-0.372196,1.060175,-0.189704,0.932248
"2018-06-07 01:06:52.493 +0000",1528333612.492868,0.381117,-1.062830,0.044969,0.180921,0.873735,-0.451501,0.000000,0.000000,0.000000,-1,-0.309968,2.763406,0.169956,0.580569,-0.462480,0.794610
"2018-06-07 01:06:52.503 +0000",1528333612.502942,0.413664,-1.066229,0.053550,0.194322,0.875384,-0.442653,0.000000,0.000000,0.000000,-1,-0.540154,2.365078,0.240317,0.059325,-0.522982,0.537684
"2018-06-07 01:06:52.513 +0000",1528333612.513016,0.440009,-1.073478,0.061112,0.203207,0.878865,-0.431628,0.000000,0.000000,0.000000,-1,-0.821183,1.830803,-0.027354,-0.211523,-0.487202,0.509921
"2018-06-07 01:06:52.523 +0000",1528333612.523090,0.457100,-1.083813,0.063466,0.206534,0.883748,-0.419919,0.000000,0.000000,0.000000,-1,-1.015942,1.380892,-0.460626,-0.320990,-0.393697,0.669018
"2018-06-07 01:06:52.533 +0000",1528333612.533165,0.464806,-1.097619,0.059740,0.204275,0.890125,-0.407368,0.000000,0.000000,0.000000,-1,-1.196404,1.009880,-0.850676,-0.332326,-0.260867,0.747456
"2018-06-07 01:06:52.543 +0000",1528333612.543239,0.467555,-1.114300,0.053399,0.198673,0.897602,-0.393495,0.000000,0.000000,0.000000,-1,-1.404895,0.794885,-1.029381,-0.245380,-0.134953,0.756257
"2018-06-07 01:06:52.553 +0000",1528333612.553313,0.469822,-1.133959,0.047283,0.191537,0.906094,-0.377234,0.000000,0.000000,0.000000,-1,-1.632169,0.778132,-1.111734,-0.171426,-0.009289,0.744589
"2018-06-07 01:06:52.563 +0000",1528333612.563387,0.474911,-1.155674,0.041787,0.184413,0.915067,-0.358669,0.000000,0.000000,0.000000,-1,-1.877582,1.120331,-1.201606,-0.114161,0.149188,0.691783
"2018-06-07 01:06:52.573 +0000",1528333612.573461,0.488308,-1.179717,0.038025,0.178826,0.924498,-0.336635,0.000000,0.000000,0.000000,-1,-2.099618,1.876242,-1.240849,0.001518,0.347383,0.610179
"2018-06-07 01:06:52.584 +0000",1528333612.583535,0.513228,-1.204976,0.037725,0.175635,0.933831,-0.311627,0.000000,0.000000,0.000000,-1,-2.214204,2.701247,-1.193009,0.172434,0.507530,0.453473
"2018-06-07 01:06:52.594 +0000",1528333612.593609,0.551618,-1.229770,0.044518,0.175275,0.942412,-0.284846,0.000000,0.000000,0.000000,-1,-2.145257,3.305273,-0.945087,0.334963,0.617479,0.224970
"2018-06-07 01:06:52.604 +0000",1528333612.603683,0.599935,-1.249731,0.059067,0.178170,0.948900,-0.260467,0.000000,0.000000,0.000000,-1,-1.817156,3.409025,-0.599179,0.355826,0.547087,-0.051850
"2018-06-07 01:06:52.614 +0000",1528333612.613757,0.649000,-1.263642,0.078347,0.182735,0.953198,-0.240875,0.000000,0.000000,0.000000,-1,-1.353108,2.893939,-0.236021,0.288365,0.334354,-0.291550
"2018-06-07 01:06:52.624 +0000",1528333612.623831,0.693637,-1.272308,0.100692,0.188012,0.955782,-0.226121,0.000000,0.000000,0.000000,-1,-1.012132,2.120875,0.045995,0.196814,0.127516,-0.321426
"2018-06-07 01:06:52.634 +0000",1528333612.633905,0.733612,-1.278817,0.125262,0.192729,0.957676,-0.213801,0.000000,0.000000,0.000000,-1,-0.850626,1.483055,0.156713,0.081288,-0.005680,-0.135580
"2018-06-07 01:06:52.644 +0000",1528333612.643979,0.766692,-1.283554,0.147217,0.196545,0.959029,-0.204040,0.000000,0.000000,0.000000,-1,-0.735473,1.122385,0.114525,-0.009564,-0.090193,0.055129
"2018-06-07 01:06:52.654 +0000",1528333612.654053,0.792281,-1.288009,0.163169,0.198658,0.960281,-0.195942,0.000000,0.000000,0.000000,-1,-0.592408,0.999363,-0.035675,-0.055957,-0.158127,0.158512
"2018-06-07 01:06:52.664 +0000",1528333612.664127,0.810025,-1.292629,0.171726,0.198888,0.961560,-0.189325,0.000000,0.000000,0.000000,-1,-0.454501,0.924708,-0.204006,-0.045872,-0.196759,0.190546
"2018-06-07 01:06:52.674 +0000",1528333612.674201,0.822939,-1.297885,0.175913,0.197607,0.962990,-0.183301,0.000000,0.000000,0.000000,-1,-0.354976,0.858419,-0.299083,0.016153,-0.217064,0.166043
"2018-06-07 01:06:52.684 +0000",1528333612.684275,0.832906,-1.302980,0.177550,0.195791,0.964351,-0.178019,0.000000,0.000000,0.000000,-1,-0.397574,0.828899,-0.356081,0.061670,-0.223247,0.164744
"2018-06-07 01:06:52.694 +0000",1528333612.694349,0.848106,-1.309479,0.184708,0.193770,0.966050,-0.170874,0.000000,0.000000,0.000000,-1,-0.638136,0.818326,-0.350183,0.102556,-0.202379,0.175863
"2018-06-07 01:06:52.704 +0000",1528333612.704423,0.874123,-1.317522,0.203569,0.192183,0.968097,-0.160784,0.000000,0.000000,0.000000,-1,-0.965343,0.751215,-0.270031,0.132188,-0.150913,0.166567
"2018-06-07 01:06:52.714 +0000",1528333612.714497,0.913760,-1.326960,0.237435,0.191160,0.970419,-0.147455,0.000000,0.000000,0.000000,-1,-1.230679,0.634796,-0.170802,0.139482,-0.087454,0.144617
"2018-06-07 01:06:52.725 +0000",1528333612.724571,0.961926,-1.335917,0.281080,0.190899,0.972543,-0.133102,0.000000,0.000000,0.000000,-1,-1.388769,0.558276,-0.091065,0.126362,-0.030358,0.125168
"2018-06-07 01:06:52.735 +0000",1528333612.734645,1.018777,-1.344440,0.333475,0.191089,0.974491,-0.117689,0.000000,0.000000,0.000000,-1,-1.475281,0.596267,-0.045580,0.086804,-0.007434,0.110762
"2018-06-07 01:06:52.745 +0000",1528333612.744718,1.081854,-1.352357,0.391407,0.191310,0.976237,-0.101783,0.000000,0.000000,0.000000,-1,-1.489936,0.663253,-0.060410,0.043248,-0.012690,0.061973
"2018-06-07 01:06:52.755 +0000",1528333612.754792,1.151794,-1.360166,0.455427,0.190985,0.977899,-0.085060,0.000000,0.000000,0.000000,-1,-1.498184,0.751181,-0.091329,0.021768,-0.029825,-0.008614
"2018-06-07 01:06:52.765 +0000",1528333612.764866,1.224531,-1.366578,0.521089,0.190759,0.979220,-0.068826,0.000000,0.000000,0.000000,-1,-1.468913,0.868709,-0.087827,0.006476,-0.058047,-0.071249
"2018-06-07 01:06:52.775 +0000",1528333612.774940,1.296953,-1.371852,0.585389,0.190265,0.980276,-0.053445,0.000000,0.000000,0.000000,-1,-1.337453,0.952640,-0.120154,-0.008762,-0.072759,-0.155386
"2018-06-07 01:06:52.785 +0000",1528333612.785014,1.362487,-1.376466,0.642225,0.188930,0.981177,-0.039935,0.000000,0.000000,0.000000,-1,-1.121496,0.971163,-0.205570,-0.027172,-0.068915,-0.217801
"2018-06-07 01:06:52.795 +0000",1528333612.795088,1.420246,-1.381278,0.691489,0.186250,0.982095,-0.028254,0.000000,0.000000,0.000000,-1,-0.890553,0.896521,-0.316032,-0.043809,-0.057992,-0.230764
"2018-06-07 01:06:52.805 +0000",1528333612.805162,1.465722,-1.386456,0.729681,0.182283,0.983057,-0.019224,0.000000,0.000000,0.000000,-1,-0.729684,0.750456,-0.456659,-0.054826,-0.021448,-0.179323
"2018-06-07 01:06:52.815 +0000",1528333612.815236,1.506169,-1.392795,0.764374,0.176688,0.984200,-0.011435,0.000000,0.000000,0.000000,-1,-0.660056,0.588835,-0.613257,-0.061957,0.023018,-0.086267
"2018-06-07 01:06:52.825 +0000",1528333612.825310,1.547239,-1.400196,0.800587,0.169721,0.985483,-0.003999,0.000000,0.000000,0.000000,-1,-0.655923,0.530072,-0.733910,-0.051114,0.034598,-0.009154
"2018-06-07 01:06:52.835 +0000",1528333612.835384,1.596521,-1.408303,0.844794,0.161719,0.986827,0.004161,0.000000,0.000000,0.000000,-1,-0.682716,0.568720,-0.805804,-0.020667,0.022466,0.031957
"2018-06-07 01:06:52.845 +0000",1528333612.845458,1.650091,-1.416303,0.892967,0.153388,0.988090,0.012188,0.000000,0.000000,0.000000,-1,-0.721363,0.600583,-0.837893,0.016534,0.020806,0.024295
"2018-06-07 01:06:52.856 +0000",1528333612.855532,1.711391,-1.423896,0.949101,0.144922,0.989230,0.020511,0.000000,0.000000,0.000000,-1,-0.757012,0.562075,-0.841150,0.057974,0.034391,-0.016223
"2018-06-07 01:06:52.866 +0000",1528333612.865606,1.779430,-1.430903,1.012626,0.136406,0.990231,0.028879,0.000000,0.000000,0.000000,-1,-0.768494,0.496182,-0.842391,0.098899,0.069385,-0.047800
"2018-06-07 01:06:52.876 +0000",1528333612.875680,1.858509,-1.437304,1.087771,0.127619,0.991103,0.037765,0.000000,0.000000,0.000000,-1,-0.777828,0.441304,-0.851134,0.141439,0.121507,-0.074722
"2018-06-07 01:06:52.886 +0000",1528333612.885754,1.941763,-1.442852,1.167233,0.118909,0.991826,0.046253,0.000000,0.000000,0.000000,-1,-0.801985,0.448926,-0.852133,0.192981,0.176280,-0.110095
"2018-06-07 01:06:52.896 +0000",1528333612.895828,2.032838,-1.447118,1.253912,0.110421,0.992362,0.054989,0.000000,0.000000,0.000000,-1,-0.816044,0.533238,-0.809905,0.269248,0.196710,-0.141873
"2018-06-07 01:06:52.906 +0000",1528333612.905902,2.125424,-1.449922,1.340658,0.102499,0.992704,0.063498,0.000000,0.000000,0.000000,-1,-0.765295,0.677969,-0.734305,0.358377,0.196093,-0.196997
"2018-06-07 01:06:52.916 +0000",1528333612.915976,2.215687,-1.451388,1.423502,0.095195,0.992879,0.071603,0.000000,0.000000,0.000000,-1,-0.635944,0.822824,-0.636296,0.451924,0.175944,-0.272561
"2018-06-07 01:06:52.926 +0000",1528333612.926050,2.286728,-1.452488,1.485959,0.089048,0.993010,0.077463,0.000000,0.000000,0.000000,-1,-0.455253,0.912835,-0.514900,0.537615,0.157381,-0.342661
"2018-06-07 01:06:52.936 +0000",1528333612.936124,2.339902,-1.453288,1.530128,0.084235,0.993104,0.081534,0.000000,0.000000,0.000000,-1,-0.289412,0.930235,-0.365715,0.588281,0.160949,-0.379218
"2018-06-07 01:06:52.946 +0000",1528333612.946198,2.378653,-1.453958,1.559477,0.080552,0.993182,0.084254,0.000000,0.000000,0.000000,-1,-0.159895,0.955462,-0.274508,0.569762,0.182431,-0.358882
"2018-06-07 01:06:52.956 +0000",1528333612.956272,2.412978,-1.454795,1.584359,0.077059,0.993279,0.086348,0.000000,0.000000,0.000000,-1,-0.046589,0.946919,-0.256506,0.536298,0.224616,-0.370085
"2018-06-07 01:06:52.966 +0000",1528333612.966346,2.436918,-1.456720,1.598960,0.073732,0.993500,0.086712,0.000000,0.000000,0.000000,-1,0.064725,0.928545,-0.251437,0.495070,0.221771,-0.417919
"2018-06-07 01:06:52.976 +0000",1528333612.976420,2.451714,-1.460281,1.605382,0.070188,0.993899,0.085063,0.000000,0.000000,0.000000,-1,0.288884,0.796509,-0.292133,0.450076,0.199490,-0.500285
"2018-06-07 01:06:52.986 +0000",1528333612.986494,2.446058,-1.466636,1.594079,0.066619,0.994580,0.079813,0.000000,0.000000,0.000000,-1,0.667522,0.457359,-0.317651,0.434251,0.197909,-0.533503
