timestamp,timeIntervalSince1970,attitude.roll,attitude.pitch,attitude.yaw,gravity.x,gravity.y,gravity.z,magneticField.x,magneticField.y,magneticField.z,magneticField.accuracy,rotationRate.x,rotationRate.y,rotationRate.z,userAcceleration.x,userAcceleration.y,userAcceleration.z
"2018-06-07 01:11:52.113 +0000",1528333912.113066,-0.209706,0.538361,0.108697,-0.178726,-0.512730,-0.839741,0.000000,0.000000,0.000000,-1,-2.011643,-2.209877,-1.387370,-0.168487,0.021000,0.010182
"2018-06-07 01:11:52.123 +0000",1528333912.123140,-0.218219,0.521095,0.092073,-0.187757,-0.497830,-0.846707,0.000000,0.000000,0.000000,-1,-1.943779,-1.451054,-0.880841,-0.352450,0.056653,-0.065265
"2018-06-07 01:11:52.133 +0000",1528333912.133214,-0.218932,0.505867,0.084227,-0.189985,-0.484566,-0.853874,0.000000,0.000000,0.000000,-1,-1.508468,-0.133393,-0.147642,-0.296373,0.016793,0.018318
"2018-06-07 01:11:52.143 +0000",1528333912.143288,-0.216351,0.492120,0.083899,-0.189193,-0.472495,-0.860787,0.000000,0.000000,0.000000,-1,-1.321559,0.217373,0.362806,-0.281754,0.215812,0.024575
"2018-06-07 01:11:52.153 +0000",1528333912.153362,-0.222291,0.476748,0.085038,-0.195881,-0.458892,-0.866630,0.000000,0.000000,0.000000,-1,-1.533286,-0.827496,0.434471,-0.304683,0.747406,-0.200325
"2018-06-07 01:11:52.163 +0000",1528333912.163437,-0.238007,0.459673,0.087908,-0.211293,-0.443655,-0.870934,0.000000,0.000000,0.000000,-1,-1.579109,-1.578721,0.749706,-0.089992,0.749166,-0.142967
"2018-06-07 01:11:52.174 +0000",1528333912.173512,-0.263206,0.442441,0.099044,-0.235125,-0.428147,-0.872586,0.000000,0.000000,0.000000,-1,-1.331057,-2.204134,1.625045,0.254137,0.165513,-0.041110
"2018-06-07 01:11:52.184 +0000",1528333912.183585,-0.300807,0.426770,0.119772,-0.269716,-0.413933,-0.869433,0.000000,0.000000,0.000000,-1,-0.845562,-3.074304,2.385110,0.335558,-0.082344,-0.226423
"2018-06-07 01:11:52.194 +0000",1528333912.193659,-0.345643,0.414082,0.145242,-0.310168,-0.402350,-0.861342,0.000000,0.000000,0.000000,-1,-0.339606,-3.481121,2.611880,0.073825,0.060995,-0.224626
"2018-06-07 01:11:52.204 +0000",1528333912.203733,-0.381102,0.405432,0.170622,-0.341791,-0.394415,-0.853004,0.000000,0.000000,0.000000,-1,0.147090,-2.002288,2.378426,-0.146918,0.198432,-0.049798
"2018-06-07 01:11:52.214 +0000",1528333912.213807,-0.400710,0.401623,0.192465,-0.359033,-0.390913,-0.847515,0.000000,0.000000,0.000000,-1,0.472538,-0.817936,1.842227,-0.253653,0.267988,0.065716
"2018-06-07 01:11:52.224 +0000",1528333912.223881,-0.408437,0.401274,0.208804,-0.365625,-0.390592,-0.844841,0.000000,0.000000,0.000000,-1,0.563644,0.012609,1.228090,-0.296957,0.329434,0.224174
"2018-06-07 01:11:52.234 +0000",1528333912.233955,-0.413169,0.402169,0.218583,-0.369479,-0.391415,-0.842781,0.000000,0.000000,0.000000,-1,0.370821,-0.218244,0.652390,-0.270200,0.318356,0.183433
"2018-06-07 01:11:52.244 +0000",1528333912.244029,-0.424669,0.401141,0.222845,-0.379311,-0.390469,-0.838843,0.000000,0.000000,0.000000,-1,-0.046904,-1.245564,0.328741,-0.197517,0.194119,0.100531
"2018-06-07 01:11:52.254 +0000",1528333912.254103,-0.441825,0.396918,0.223294,-0.394348,-0.386578,-0.833695,0.000000,0.000000,0.000000,-1,-0.465491,-1.732448,0.187373,-0.145798,0.184033,0.155976
"2018-06-07 01:11:52.264 +0000",1528333912.264178,-0.455165,0.388217,0.221096,-0.406897,-0.378539,-0.831350,0.000000,0.000000,0.000000,-1,-1.010196,-1.296070,0.215706,-0.067804,0.237502,0.351736
"2018-06-07 01:11:52.274 +0000",1528333912.274252,-0.468069,0.374041,0.219432,-0.419969,-0.365380,-0.830736,0.000000,0.000000,0.000000,-1,-1.409068,-1.417380,0.607801,0.057207,0.180703,0.200533
"2018-06-07 01:11:52.284 +0000",1528333912.284326,-0.486558,0.356248,0.221212,-0.438227,-0.348761,-0.828446,0.000000,0.000000,0.000000,-1,-1.494020,-1.884962,1.059482,0.015192,0.043402,-0.065887
"2018-06-07 01:11:52.294 +0000",1528333912.294400,-0.508316,0.338818,0.226426,-0.459037,-0.332373,-0.823901,0.000000,0.000000,0.000000,-1,-1.189118,-1.943307,1.300634,-0.080209,0.121039,-0.166547
"2018-06-07 01:11:52.304 +0000",1528333912.304474,-0.530254,0.324901,0.235697,-0.479293,-0.319215,-0.817545,0.000000,0.000000,0.000000,-1,-0.602417,-1.907339,1.489784,-0.111192,0.228425,-0.123037
"2018-06-07 01:11:52.315 +0000",1528333912.314548,-0.555823,0.316182,0.250254,-0.501487,-0.310940,-0.807358,0.000000,0.000000,0.000000,-1,0.172716,-2.167169,1.660432,-0.087380,0.304638,-0.193680
"2018-06-07 01:11:52.325 +0000",1528333912.324622,-0.586447,0.313773,0.269983,-0.526386,-0.308649,-0.792246,0.000000,0.000000,0.000000,-1,1.008917,-2.519534,1.686535,0.018756,0.318354,-0.283056
"2018-06-07 01:11:52.335 +0000",1528333912.334696,-0.622162,0.317629,0.292705,-0.553641,-0.312315,-0.771972,0.000000,0.000000,0.000000,-1,1.694700,-2.966846,1.479290,0.071524,0.367140,-0.278596
"2018-06-07 01:11:52.345 +0000",1528333912.344771,-0.663842,0.327683,0.316073,-0.583363,-0.321851,-0.745721,0.000000,0.000000,0.000000,-1,2.246931,-3.560649,1.037435,0.028111,0.385175,-0.294242
"2018-06-07 01:11:52.355 +0000",1528333912.354845,-0.711511,0.343983,0.339114,-0.614727,-0.337240,-0.713008,0.000000,0.000000,0.000000,-1,2.739895,-4.077404,0.507737,-0.061253,0.359716,-0.338643
"2018-06-07 01:11:52.365 +0000",1528333912.364919,-0.759535,0.365697,0.360753,-0.643052,-0.357600,-0.677205,0.000000,0.000000,0.000000,-1,2.986127,-3.958854,-0.113129,-0.158370,0.356852,-0.228068
"2018-06-07 01:11:52.375 +0000",1528333912.374993,-0.800688,0.388493,0.378939,-0.664343,-0.378794,-0.644332,0.000000,0.000000,0.000000,-1,2.610467,-3.078261,-0.405510,-0.175333,0.428995,-0.016038
"2018-06-07 01:11:52.385 +0000",1528333912.385067,-0.835436,0.402295,0.397523,-0.682384,-0.391531,-0.617296,0.000000,0.000000,0.000000,-1,2.095387,-2.711021,0.423909,0.257168,0.213598,0.132753
"2018-06-07 01:11:52.395 +0000",1528333912.395141,-0.872676,0.404655,0.421940,-0.704184,-0.393701,-0.590867,0.000000,0.000000,0.000000,-1,1.763388,-2.814332,1.543040,0.476797,0.083277,-0.026458
"2018-06-07 01:11:52.405 +0000",1528333912.405215,-0.914741,0.398988,0.450316,-0.730165,-0.388486,-0.562084,0.000000,0.000000,0.000000,-1,1.653632,-3.150011,2.199534,0.255754,0.265057,-0.072300
"2018-06-07 01:11:52.415 +0000",1528333912.415289,-0.959765,0.390204,0.480445,-0.757489,-0.380377,-0.530587,0.000000,0.000000,0.000000,-1,1.742048,-3.357822,2.337485,0.200254,0.339759,-0.086219
"2018-06-07 01:11:52.425 +0000",1528333912.425363,-1.004528,0.383346,0.510975,-0.782656,-0.374026,-0.497547,0.000000,0.000000,0.000000,-1,2.041601,-3.254682,2.024086,0.051257,0.326754,-0.044765
"2018-06-07 01:11:52.435 +0000",1528333912.435438,-1.049419,0.379502,0.542494,-0.805436,-0.370458,-0.462637,0.000000,0.000000,0.000000,-1,2.422840,-3.065728,1.457974,-0.039809,0.310842,-0.047129
"2018-06-07 01:11:52.446 +0000",1528333912.445512,-1.092095,0.383344,0.573131,-0.823171,-0.374024,-0.427194,0.000000,0.000000,0.000000,-1,2.724560,-3.143725,0.884813,-0.111613,0.298722,-0.109152
"2018-06-07 01:11:52.456 +0000",1528333912.455586,-1.136418,0.390416,0.603473,-0.838871,-0.380573,-0.389178,0.000000,0.000000,0.000000,-1,2.820941,-3.289051,0.524904,-0.082730,0.227161,-0.130933
"2018-06-07 01:11:52.466 +0000",1528333912.465660,-1.180775,0.397867,0.632705,-0.852656,-0.387453,-0.350510,0.000000,0.000000,0.000000,-1,2.716069,-3.279895,0.365975,-0.036565,0.171358,-0.035766
"2018-06-07 01:11:52.476 +0000",1528333912.475734,-1.224926,0.403409,0.660555,-0.865262,-0.392556,-0.311802,0.000000,0.000000,0.000000,-1,2.527307,-3.224242,0.320316,-0.022601,0.160851,0.037296
"2018-06-07 01:11:52.486 +0000",1528333912.485808,-1.266533,0.407974,0.686646,-0.875764,-0.396750,-0.275002,0.000000,0.000000,0.000000,-1,2.361078,-3.053514,0.335177,-0.017165,0.161094,0.063545
"2018-06-07 01:11:52.496 +0000",1528333912.495882,-1.304994,0.411426,0.711382,-0.884364,-0.399916,-0.240763,0.000000,0.000000,0.000000,-1,2.224640,-2.764972,0.285774,-0.072606,0.127013,0.096857
"2018-06-07 01:11:52.506 +0000",1528333912.505956,-1.340524,0.414898,0.734583,-0.891001,-0.403097,-0.208878,0.000000,0.000000,0.000000,-1,2.091128,-2.560544,0.139311,-0.169531,0.095571,0.109604
"2018-06-07 01:11:52.516 +0000",1528333912.516030,-1.373949,0.418476,0.755928,-0.896063,-0.406369,-0.178702,0.000000,0.000000,0.000000,-1,1.901246,-2.340707,-0.054307,-0.208276,0.081494,0.149817
"2018-06-07 01:11:52.526 +0000",1528333912.526105,-1.402361,0.423491,0.773650,-0.898758,-0.410945,-0.152830,0.000000,0.000000,0.000000,-1,1.583093,-2.015857,-0.244098,-0.216385,0.046337,0.243590
"2018-06-07 01:11:52.536 +0000",1528333912.536179,-1.426256,0.429211,0.787350,-0.899812,-0.416153,-0.130972,0.000000,0.000000,0.000000,-1,1.221723,-1.753816,-0.406006,-0.216933,0.018494,0.296454
"2018-06-07 01:11:52.546 +0000",1528333912.546253,-1.447048,0.435603,0.797588,-0.899682,-0.421957,-0.111906,0.000000,0.000000,0.000000,-1,0.931632,-1.606980,-0.535068,-0.188376,0.029455,0.273039
"2018-06-07 01:11:52.556 +0000",1528333912.556327,-1.468660,0.440597,0.806580,-0.899783,-0.426479,-0.092221,0.000000,0.000000,0.000000,-1,0.762123,-1.593919,-0.620693,-0.141859,0.026440,0.224423
"2018-06-07 01:11:52.566 +0000",1528333912.566401,-1.488727,0.448234,0.813699,-0.898179,-0.433375,-0.073879,0.000000,0.000000,0.000000,-1,0.690539,-1.728729,-0.719881,-0.129637,0.001582,0.173824
"2018-06-07 01:11:52.576 +0000",1528333912.576475,-1.510668,0.456695,0.820326,-0.895892,-0.440984,-0.053933,0.000000,0.000000,0.000000,-1,0.635840,-1.944725,-0.819343,-0.138746,0.011846,0.141106
"2018-06-07 01:11:52.587 +0000",1528333912.586549,-1.534182,0.465713,0.826384,-0.892902,-0.449060,-0.032707,0.000000,0.000000,0.000000,-1,0.562940,-2.095060,-0.882001,-0.119290,0.037851,0.110543
"2018-06-07 01:11:52.597 +0000",1528333912.596623,-1.578962,0.458149,0.841567,-0.896841,-0.442289,0.007323,0.000000,0.000000,0.000000,-1,0.488723,-2.012697,-0.938600,-0.099039,0.034315,0.059404
"2018-06-07 01:11:52.607 +0000",1528333912.606697,-1.598860,0.468272,0.846704,-0.891997,-0.451345,0.025039,0.000000,0.000000,0.000000,-1,0.419833,-1.642512,-1.040628,-0.139055,0.048010,0.042939
"2018-06-07 01:11:52.617 +0000",1528333912.616772,-1.614157,0.479384,0.851360,-0.886444,-0.461233,0.038461,0.000000,0.000000,0.000000,-1,0.356098,-1.197679,-1.139223,-0.164795,0.066854,0.051871
"2018-06-07 01:11:52.627 +0000",1528333912.626846,-1.626135,0.491342,0.855777,-0.880349,-0.471809,0.048767,0.000000,0.000000,0.000000,-1,0.322922,-0.939424,-1.227674,-0.136451,0.103066,0.041427
"2018-06-07 01:11:52.637 +0000",1528333912.636920,-1.638407,0.504402,0.860506,-0.873462,-0.483284,0.059145,0.000000,0.000000,0.000000,-1,0.339743,-1.042040,-1.353862,-0.102841,0.153664,-0.030916
"2018-06-07 01:11:52.647 +0000",1528333912.646994,-1.654314,0.518835,0.866327,-0.865369,-0.495869,0.072442,0.000000,0.000000,0.000000,-1,0.415815,-1.392479,-1.505646,-0.083666,0.162754,-0.131799
"2018-06-07 01:11:52.657 +0000",1528333912.657068,-1.675063,0.534396,0.874010,-0.855902,-0.509321,0.089567,0.000000,0.000000,0.000000,-1,0.550486,-1.762646,-1.626427,-0.058084,0.141309,-0.219923
"2018-06-07 01:11:52.667 +0000",1528333912.667142,-1.700062,0.550182,0.884565,-0.845316,-0.522843,0.109883,0.000000,0.000000,0.000000,-1,0.770534,-1.988004,-1.667386,0.004099,0.100540,-0.281865
"2018-06-07 01:11:52.677 +0000",1528333912.677216,-1.728818,0.565370,0.899190,-0.833869,-0.535728,0.132877,0.000000,0.000000,0.000000,-1,1.086817,-2.110066,-1.669541,0.038855,0.083930,-0.351840
"2018-06-07 01:11:52.687 +0000",1528333912.687290,-1.760958,0.579807,0.918590,-0.821487,-0.547863,0.158126,0.000000,0.000000,0.000000,-1,1.432680,-2.151774,-1.703799,-0.019501,0.083827,-0.419586
"2018-06-07 01:11:52.697 +0000",1528333912.697364,-1.796132,0.593565,0.942808,-0.807995,-0.559319,0.185216,0.000000,0.000000,0.000000,-1,1.754572,-2.164891,-1.765886,-0.063603,0.048455,-0.413426
"2018-06-07 01:11:52.707 +0000",1528333912.707439,-1.834791,0.606604,0.971100,-0.793124,-0.570081,0.214384,0.000000,0.000000,0.000000,-1,1.985215,-2.289122,-1.831315,-0.077939,0.009366,-0.347013
"2018-06-07 01:11:52.718 +0000",1528333912.717513,-1.876384,0.618662,1.001789,-0.776911,-0.579946,0.245091,0.000000,0.000000,0.000000,-1,2.064217,-2.393121,-1.847933,-0.091909,-0.007166,-0.265630
"2018-06-07 01:11:52.728 +0000",1528333912.727587,-1.918158,0.629562,1.032770,-0.760008,-0.588791,0.275155,0.000000,0.000000,0.000000,-1,1.993572,-2.326467,-1.820686,-0.120485,-0.037292,-0.148034
"2018-06-07 01:11:52.738 +0000",1528333912.737661,-1.958781,0.640063,1.063726,-0.742442,-0.597246,0.303437,0.000000,0.000000,0.000000,-1,1.921470,-2.166107,-1.888896,-0.225652,-0.036833,-0.117951
"2018-06-07 01:11:52.748 +0000",1528333912.747736,-1.998713,0.651109,1.096289,-0.723689,-0.606069,0.330076,0.000000,0.000000,0.000000,-1,1.943791,-1.970922,-2.084146,-0.329930,-0.051875,-0.163572
"2018-06-07 01:11:52.758 +0000",1528333912.757809,-2.038428,0.662863,1.130991,-0.703605,-0.615376,0.355314,0.000000,0.000000,0.000000,-1,1.950354,-1.797750,-2.276198,-0.334359,-0.067607,-0.149931
"2018-06-07 01:11:52.768 +0000",1528333912.767883,-2.077680,0.674662,1.166452,-0.682724,-0.624634,0.379099,0.000000,0.000000,0.000000,-1,1.863504,-1.686879,-2.332686,-0.225800,-0.074051,-0.090037
"2018-06-07 01:11:52.778 +0000",1528333912.777957,-2.114958,0.685708,1.200758,-0.662177,-0.633222,0.400684,0.000000,0.000000,0.000000,-1,1.693586,-1.506570,-2.248947,-0.092935,-0.088641,-0.022830
"2018-06-07 01:11:52.788 +0000",1528333912.788031,-2.146244,0.697136,1.228653,-0.643206,-0.642024,0.417236,0.000000,0.000000,0.000000,-1,1.033131,-1.250233,-2.033711,0.012270,-0.055333,0.235886
"2018-06-07 01:11:52.798 +0000",1528333912.798106,-2.169099,0.709319,1.249833,-0.626993,-0.651317,0.427388,0.000000,0.000000,0.000000,-1,0.560741,-0.802231,-1.849542,0.058527,-0.085637,0.393962
"2018-06-07 01:11:52.808 +0000",1528333912.808180,-2.185289,0.721586,1.265403,-0.613417,-0.660577,0.432843,0.000000,0.000000,0.000000,-1,0.158311,-0.539879,-1.588627,0.095198,-0.163764,0.321002
"2018-06-07 01:11:52.818 +0000",1528333912.818254,-2.194504,0.733906,1.273391,-0.602750,-0.669775,0.433691,0.000000,0.000000,0.000000,-1,-0.359118,-0.329749,-1.254457,0.215329,-0.122369,0.461359
"2018-06-07 01:11:52.828 +0000",1528333912.828327,-2.195974,0.745549,1.274040,-0.595748,-0.678375,0.429984,0.000000,0.000000,0.000000,-1,-0.699633,-0.026091,-0.854805,0.271743,-0.054977,0.536508
"2018-06-07 01:11:52.838 +0000",1528333912.838401,-2.191153,0.755247,1.268997,-0.592432,-0.685469,0.423262,0.000000,0.000000,0.000000,-1,-0.910613,0.173772,-0.486945,0.378519,-0.006792,0.414156
"2018-06-07 01:11:52.848 +0000",1528333912.848475,-2.182731,0.763775,1.260067,-0.591170,-0.691653,0.414885,0.000000,0.000000,0.000000,-1,-1.037275,0.242801,-0.277779,0.294402,0.069491,0.297396
"2018-06-07 01:11:52.859 +0000",1528333912.858549,-2.172571,0.771625,1.250152,-0.590860,-0.697301,0.405771,0.000000,0.000000,0.000000,-1,-1.011449,0.356865,-0.235557,0.096674,0.158116,0.154456
"2018-06-07 01:11:52.869 +0000",1528333912.868623,-2.162792,0.779301,1.242140,-0.590341,-0.702783,0.396975,0.000000,0.000000,0.000000,-1,-0.852031,0.411572,-0.348705,-0.051658,0.206796,0.041929
"2018-06-07 01:11:52.879 +0000",1528333912.878698,-2.158341,0.786883,1.238516,-0.587650,-0.708156,0.391378,0.000000,0.000000,0.000000,-1,-0.538376,0.072890,-0.528966,-0.139737,0.236125,-0.113424
"2018-06-07 01:11:52.889 +0000",1528333912.888772,-2.165525,0.793501,1.241836,-0.580928,-0.712813,0.392955,0.000000,0.000000,0.000000,-1,-0.037235,-0.685648,-0.725936,-0.241811,0.279967,-0.323360
"2018-06-07 01:11:52.899 +0000",1528333912.898846,-2.187972,0.798471,1.254018,-0.569066,-0.716290,0.403840,0.000000,0.000000,0.000000,-1,0.567089,-1.589841,-0.937550,-0.319621,0.313717,-0.448746
"2018-06-07 01:11:52.909 +0000",1528333912.908920,-2.224834,0.801113,1.274884,-0.552293,-0.718131,0.423385,0.000000,0.000000,0.000000,-1,1.145763,-2.344973,-1.109948,-0.332336,0.279227,-0.391158
"2018-06-07 01:11:52.919 +0000",1528333912.918994,-2.271784,0.801493,1.302681,-0.531604,-0.718396,0.448662,0.000000,0.000000,0.000000,-1,1.552803,-2.746053,-1.270167,-0.350308,0.285214,-0.205956
"2018-06-07 01:11:52.929 +0000",1528333912.929068,-2.317643,0.801282,1.330966,-0.510589,-0.718248,0.472665,0.000000,0.000000,0.000000,-1,1.363127,-2.344924,-1.239523,-0.205124,0.291490,0.184486
"2018-06-07 01:11:52.939 +0000",1528333912.939142,-2.349662,0.803060,1.350927,-0.494286,-0.719485,0.487870,0.000000,0.000000,0.000000,-1,0.726511,-1.607622,-1.042304,0.067467,0.194674,0.714614
"2018-06-07 01:11:52.949 +0000",1528333912.949216,-2.375024,0.806286,1.366685,-0.480142,-0.721721,0.498573,0.000000,0.000000,0.000000,-1,0.511562,-1.336202,-0.987240,-0.044134,0.200008,0.387459
"2018-06-07 01:11:52.959 +0000",1528333912.959290,-2.399341,0.808769,1.382865,-0.466664,-0.723438,0.508778,0.000000,0.000000,0.000000,-1,0.611225,-1.245926,-0.982903,-0.180507,0.147983,0.135479
"2018-06-07 01:11:52.969 +0000",1528333912.969364,-2.426257,0.810774,1.401075,-0.451851,-0.724821,0.520057,0.000000,0.000000,0.000000,-1,0.698394,-1.415358,-1.097614,-0.233315,0.134245,0.040155
"2018-06-07 01:11:52.979 +0000",1528333912.979439,-2.456448,0.813006,1.421568,-0.434921,-0.726356,0.532205,0.000000,0.000000,0.000000,-1,0.742722,-1.534264,-1.247576,-0.230835,0.122475,-0.017480
"2018-06-07 01:11:52.990 +0000",1528333912.989513,-2.487233,0.815353,1.444061,-0.417295,-0.727968,0.543986,0.000000,0.000000,0.000000,-1,0.775084,-1.379992,-1.377399,-0.183505,0.053087,-0.033748
"2018-06-07 01:11:53.000 +0000",1528333912.999587,-2.516629,0.817628,1.467546,-0.400156,-0.729525,0.554671,0.000000,0.000000,0.000000,-1,0.767885,-1.172342,-1.423031,-0.147619,-0.002607,-0.074142
"2018-06-07 01:11:53.010 +0000",1528333913.009661,-2.544715,0.819426,1.491146,-0.383684,-0.730754,0.564604,0.000000,0.000000,0.000000,-1,0.774998,-1.053832,-1.406568,-0.129622,-0.045521,-0.099821
"2018-06-07 01:11:53.020 +0000",1528333913.019735,-2.572208,0.820286,1.514631,-0.367679,-0.731341,0.574408,0.000000,0.000000,0.000000,-1,0.816628,-1.023172,-1.360321,-0.115765,-0.060987,-0.140647
"2018-06-07 01:11:53.030 +0000",1528333913.029809,-2.598912,0.819901,1.537138,-0.352357,-0.731078,0.584262,0.000000,0.000000,0.000000,-1,0.831441,-1.006071,-1.239833,-0.038970,-0.109986,-0.207232
"2018-06-07 01:11:53.040 +0000",1528333913.039883,-2.621249,0.819040,1.556183,-0.339532,-0.730491,0.592532,0.000000,0.000000,0.000000,-1,0.675990,-0.749540,-0.997787,0.110268,-0.153298,-0.123660
"2018-06-07 01:11:53.050 +0000",1528333913.049957,-2.634783,0.818110,1.568828,-0.331811,-0.729855,0.597666,0.000000,0.000000,0.000000,-1,0.449827,-0.321526,-0.595884,0.304955,-0.158771,0.012380
"2018-06-07 01:11:53.060 +0000",1528333913.060032,-2.640791,0.816307,1.576034,-0.328846,-0.728621,0.600803,0.000000,0.000000,0.000000,-1,0.387196,-0.004688,-0.275352,0.317615,-0.130433,-0.090580
"2018-06-07 01:11:53.070 +0000",1528333913.070106,-2.642324,0.814324,1.580879,-0.328616,-0.727262,0.602573,0.000000,0.000000,0.000000,-1,0.296992,0.258157,-0.187254,0.115557,-0.038226,-0.149189
"2018-06-07 01:11:53.080 +0000",1528333913.080180,-2.641135,0.813421,1.584842,-0.329647,-0.726642,0.602759,0.000000,0.000000,0.000000,-1,0.186585,0.449993,-0.195048,-0.090855,-0.000516,-0.079489
"2018-06-07 01:11:53.090 +0000",1528333913.090254,-2.638315,0.813194,1.588485,-0.331425,-0.726486,0.601971,0.000000,0.000000,0.000000,-1,0.125686,0.564062,-0.211787,-0.154385,0.029723,-0.084897
"2018-06-07 01:11:53.100 +0000",1528333913.100328,-2.634779,0.813488,1.591955,-0.333448,-0.726688,0.600609,0.000000,0.000000,0.000000,-1,0.075325,0.608984,-0.224449,-0.132251,0.041034,-0.051979
"2018-06-07 01:11:53.110 +0000",1528333913.110402,-2.630900,0.814579,1.594828,-0.335387,-0.727437,0.598619,0.000000,0.000000,0.000000,-1,-0.026556,0.579046,-0.221075,-0.077089,0.050771,0.026030
"2018-06-07 01:11:53.120 +0000",1528333913.120476,-2.627847,0.815993,1.597019,-0.336707,-0.728406,0.596696,0.000000,0.000000,0.000000,-1,-0.040292,0.407623,-0.189273,-0.056542,0.099317,0.029556
"2018-06-07 01:11:53.131 +0000",1528333913.130550,-2.627322,0.816560,1.599561,-0.336818,-0.728795,0.596159,0.000000,0.000000,0.000000,-1,0.064876,0.186124,-0.179402,-0.083562,0.106373,-0.040357
"2018-06-07 01:11:53.141 +0000",1528333913.140624,-2.628778,0.816253,1.603151,-0.336059,-0.728584,0.596844,0.000000,0.000000,0.000000,-1,0.173328,0.099803,-0.203566,-0.100205,0.129234,0.017139
"2018-06-07 01:11:53.151 +0000",1528333913.150699,-2.631715,0.814970,1.607946,-0.334761,-0.727705,0.598644,0.000000,0.000000,0.000000,-1,0.303798,0.036587,-0.225561,-0.109545,0.146788,0.032002
"2018-06-07 01:11:53.161 +0000",1528333913.160773,-2.636104,0.813014,1.613648,-0.332819,-0.726362,0.601351,0.000000,0.000000,0.000000,-1,0.372347,-0.034464,-0.252816,-0.133108,0.175733,0.016538
"2018-06-07 01:11:53.171 +0000",1528333913.170847,-2.640747,0.811003,1.619921,-0.330723,-0.724979,0.604170,0.000000,0.000000,0.000000,-1,0.378860,0.003013,-0.284991,-0.110485,0.197101,0.061358
"2018-06-07 01:11:53.181 +0000",1528333913.180921,-2.645178,0.809166,1.626041,-0.328676,-0.723712,0.606799,0.000000,0.000000,0.000000,-1,0.355697,-0.008065,-0.276365,-0.077055,0.228549,0.081815
"2018-06-07 01:11:53.191 +0000",1528333913.190995,-2.649335,0.807619,1.631853,-0.326680,-0.722644,0.609146,0.000000,0.000000,0.000000,-1,0.309492,0.023664,-0.281545,-0.083705,0.211459,0.067261
"2018-06-07 01:11:53.201 +0000",1528333913.201069,-2.651663,0.806684,1.637209,-0.325579,-0.721997,0.610501,0.000000,0.000000,0.000000,-1,0.236847,0.191414,-0.279815,-0.108869,0.201290,0.121616
"2018-06-07 01:11:53.211 +0000",1528333913.211143,-2.653139,0.805677,1.641817,-0.325018,-0.721300,0.611623,0.000000,0.000000,0.000000,-1,0.248920,0.168092,-0.207843,-0.068826,0.159303,0.101497
"2018-06-07 01:11:53.221 +0000",1528333913.221217,-2.584374,0.745939,1.595812,-0.388395,-0.678661,0.623346,0.000000,0.000000,0.000000,-1,0.348666,0.021698,-0.048226,0.054930,0.081982,0.031409
"2018-06-07 01:11:53.231 +0000",1528333913.231291,-2.564188,0.710264,1.582738,-0.413856,-0.652034,0.635269,0.000000,0.000000,0.000000,-1,0.409270,-0.119466,0.146992,0.066673,0.039348,0.003738
"2018-06-07 01:11:53.241 +0000",1528333913.241366,-2.544617,0.683060,1.569588,-0.436021,-0.631169,0.641485,0.000000,0.000000,0.000000,-1,0.406000,-0.080573,0.294476,0.011751,0.020314,0.035151
"2018-06-07 01:11:53.251 +0000",1528333913.251440,-2.548423,0.658422,1.571177,-0.442137,-0.611870,0.655838,0.000000,0.000000,0.000000,-1,0.462159,-0.081820,0.367488,0.000151,-0.011314,-0.064239
"2018-06-07 01:11:53.262 +0000",1528333913.261514,-2.561616,0.637410,1.577598,-0.440395,-0.595116,0.672221,0.000000,0.000000,0.000000,-1,0.629165,-0.312005,0.395478,-0.046040,0.014565,-0.258265
"2018-06-07 01:11:53.272 +0000",1528333913.271588,-2.569570,0.627593,1.579680,-0.438176,-0.587198,0.680582,0.000000,0.000000,0.000000,-1,1.029888,-0.832305,0.388744,-0.135890,0.014460,-0.443094
"2018-06-07 01:11:53.282 +0000",1528333913.281662,-2.585559,0.614554,1.585109,-0.431244,-0.576594,0.693945,0.000000,0.000000,0.000000,-1,1.406045,-1.385272,0.302374,-0.178176,0.017420,-0.560584
"2018-06-07 01:11:53.292 +0000",1528333913.291736,-2.606316,0.599358,1.592384,-0.421169,-0.564112,0.710202,0.000000,0.000000,0.000000,-1,1.662964,-1.738974,0.263109,-0.187596,0.039362,-0.376141
"2018-06-07 01:11:53.302 +0000",1528333913.301810,-2.630248,0.582753,1.601810,-0.408581,-0.550325,0.728146,0.000000,0.000000,0.000000,-1,1.846052,-1.838759,0.095675,-0.285190,-0.005126,-0.369259
"2018-06-07 01:11:53.312 +0000",1528333913.311884,-2.651078,0.568034,1.613877,-0.397100,-0.537975,0.743563,0.000000,0.000000,0.000000,-1,1.702413,-1.223900,-0.287289,-0.418254,-0.028690,-0.092700
"2018-06-07 01:11:53.322 +0000",1528333913.321958,-2.663744,0.558609,1.627997,-0.389964,-0.530007,0.753002,0.000000,0.000000,0.000000,-1,1.263657,-0.258379,-0.716960,-0.504567,0.003289,0.130497
"2018-06-07 01:11:53.332 +0000",1528333913.332033,-2.666214,0.554131,1.643072,-0.389185,-0.526204,0.756066,0.000000,0.000000,0.000000,-1,0.888612,0.815286,-0.976511,-0.426717,0.015508,0.073066
"2018-06-07 01:11:53.342 +0000",1528333913.342107,-2.657096,0.553514,1.656553,-0.396214,-0.525680,0.752773,0.000000,0.000000,0.000000,-1,0.467358,1.859122,-0.959602,-0.095378,0.001479,0.127202
"2018-06-07 01:11:53.352 +0000",1528333913.352181,-2.638297,0.555435,1.666501,-0.409807,-0.527313,0.744306,0.000000,0.000000,0.000000,-1,0.173377,2.515125,-0.781691,0.212084,0.023407,0.093585
"2018-06-07 01:11:53.362 +0000",1528333913.362255,-2.617193,0.557804,1.674359,-0.424796,-0.529325,0.734409,0.000000,0.000000,0.000000,-1,0.122193,2.437680,-0.672083,0.231909,0.006971,-0.068653
"2018-06-07 01:11:53.372 +0000",1528333913.372329,-2.601346,0.559232,1.681968,-0.435991,-0.530536,0.726936,0.000000,0.000000,0.000000,-1,0.232559,1.794404,-0.603214,0.193452,-0.049466,-0.068184
"2018-06-07 01:11:53.382 +0000",1528333913.382403,-2.591824,0.559965,1.688818,-0.442689,-0.531157,0.722420,0.000000,0.000000,0.000000,-1,0.222984,1.170455,-0.510351,0.160554,-0.104097,-0.000451
"2018-06-07 01:11:53.392 +0000",1528333913.392477,-2.584629,0.561395,1.694973,-0.447474,-0.532368,0.718571,0.000000,0.000000,0.000000,-1,0.129778,1.039643,-0.529879,0.035716,-0.193325,0.069408
"2018-06-07 01:11:53.403 +0000",1528333913.402551,-2.574991,0.563634,1.703514,-0.453738,-0.534261,0.713218,0.000000,0.000000,0.000000,-1,0.242729,1.598794,-0.809255,-0.255155,-0.256007,-0.009925
"2018-06-07 01:11:53.413 +0000",1528333913.412626,-2.563914,0.570045,1.711529,-0.459730,-0.539670,0.705264,0.000000,0.000000,0.000000,-1,-0.377027,1.382338,-0.911727,-0.249346,-0.303866,0.036893
"2018-06-07 01:11:53.423 +0000",1528333913.422700,-2.557040,0.579055,1.718448,-0.461866,-0.547234,0.698003,0.000000,0.000000,0.000000,-1,-0.362314,0.989751,-1.001106,-0.095660,-0.212883,0.041559
"2018-06-07 01:11:53.433 +0000",1528333913.432774,-2.555555,0.586206,1.728239,-0.460725,-0.553205,0.694039,0.000000,0.000000,0.000000,-1,-0.119833,0.582336,-1.068461,-0.148497,-0.214099,-0.185647
"2018-06-07 01:11:53.443 +0000",1528333913.442848,-2.556371,0.593598,1.736893,-0.457888,-0.559347,0.690988,0.000000,0.000000,0.000000,-1,-0.247370,0.358775,-0.982767,-0.003660,-0.142435,-0.037927
"2018-06-07 01:11:53.453 +0000",1528333913.452922,-2.556039,0.601193,1.744819,-0.455756,-0.565627,0.687275,0.000000,0.000000,0.000000,-1,-0.276177,0.538578,-0.946682,-0.062692,-0.072480,-0.045032
"2018-06-07 01:11:53.463 +0000",1528333913.462996,-2.552938,0.608985,1.751406,-0.455424,-0.572035,0.682172,0.000000,0.000000,0.000000,-1,-0.367426,0.711359,-0.848087,-0.030019,-0.050233,-0.062925
"2018-06-07 01:11:53.473 +0000",1528333913.473070,-2.548508,0.616176,1.756099,-0.456131,-0.577919,0.676720,0.000000,0.000000,0.000000,-1,-0.382480,0.688588,-0.663107,0.149948,0.045829,-0.043648
"2018-06-07 01:11:53.483 +0000",1528333913.483144,-2.544995,0.622269,1.758891,-0.456519,-0.582881,0.672187,0.000000,0.000000,0.000000,-1,-0.367865,0.443076,-0.484222,0.273658,0.076426,-0.006706
"2018-06-07 01:11:53.493 +0000",1528333913.493218,-2.542997,0.627007,1.760074,-0.456300,-0.586724,0.668985,0.000000,0.000000,0.000000,-1,-0.323908,0.206397,-0.297849,0.296815,0.068810,0.044150
"2018-06-07 01:11:53.503 +0000",1528333913.503293,-2.542678,0.630464,1.759590,-0.455367,-0.589520,0.667160,0.000000,0.000000,0.000000,-1,-0.297741,-0.063246,-0.115834,0.344191,0.041958,0.097275
"2018-06-07 01:11:53.513 +0000",1528333913.513367,-2.543350,0.632540,1.757430,-0.454228,-0.591195,0.666453,0.000000,0.000000,0.000000,-1,-0.254929,-0.218704,0.072929,0.355870,-0.019400,0.092473
"2018-06-07 01:11:53.523 +0000",1528333913.523441,-2.543293,0.633138,1.753619,-0.454066,-0.591678,0.666134,0.000000,0.000000,0.000000,-1,-0.207089,-0.211715,0.270759,0.346797,-0.075864,0.077305
"2018-06-07 01:11:53.534 +0000",1528333913.533515,-2.541242,0.631694,1.747313,-0.455914,-0.590513,0.665906,0.000000,0.000000,0.000000,-1,-0.152846,-0.154702,0.585964,0.402234,-0.128161,0.065799
"2018-06-07 01:11:53.544 +0000",1528333913.543589,-2.536282,0.627907,1.736729,-0.460480,-0.587452,0.665471,0.000000,0.000000,0.000000,-1,-0.194126,-0.122661,1.033620,0.522126,-0.158916,0.070461
"2018-06-07 01:11:53.554 +0000",1528333913.553663,-2.527458,0.621794,1.718857,-0.468395,-0.582495,0.664304,0.000000,0.000000,0.000000,-1,-0.373671,-0.183105,1.716890,0.652660,-0.213679,0.073245
"2018-06-07 01:11:53.564 +0000",1528333913.563737,-2.514994,0.611492,1.691648,-0.480131,-0.574089,0.663241,0.000000,0.000000,0.000000,-1,-0.459112,-0.389074,2.610348,0.796675,-0.306389,-0.008059
"2018-06-07 01:11:53.574 +0000",1528333913.573811,-2.500409,0.595563,1.656915,-0.495161,-0.560975,0.663412,0.000000,0.000000,0.000000,-1,-0.388508,-0.541564,3.419703,0.819013,-0.298110,-0.088156
"2018-06-07 01:11:53.584 +0000",1528333913.583885,-2.482735,0.575090,1.615638,-0.513732,-0.543910,0.663501,0.000000,0.000000,0.000000,-1,-0.487525,-0.481156,4.133258,0.774475,-0.163930,0.110303
"2018-06-07 01:11:53.594 +0000",1528333913.593960,-2.460898,0.551529,1.567101,-0.536015,-0.523990,0.661902,0.000000,0.000000,0.000000,-1,-0.778187,-0.377040,4.767782,0.723882,-0.041592,0.336267
"2018-06-07 01:11:53.604 +0000",1528333913.604034,-2.435721,0.529233,1.514717,-0.559949,-0.504871,0.656928,0.000000,0.000000,0.000000,-1,-1.292640,-0.083475,4.840806,0.252744,-0.052227,0.466256
"2018-06-07 01:11:53.614 +0000",1528333913.614108,-2.405055,0.512035,1.462003,-0.585574,-0.489952,0.645788,0.000000,0.000000,0.000000,-1,-1.838293,0.643539,4.409610,-0.417478,-0.072777,0.589823
"2018-06-07 01:11:53.624 +0000",1528333913.624182,-2.364737,0.498666,1.412891,-0.615666,-0.478254,0.626275,0.000000,0.000000,0.000000,-1,-1.972155,2.006570,3.892194,-0.937984,-0.136248,0.421378
"2018-06-07 01:11:53.634 +0000",1528333913.634256,-2.317634,0.487755,1.369699,-0.648262,-0.468644,0.600101,0.000000,0.000000,0.000000,-1,-1.943614,2.766895,3.227441,-1.051689,0.028672,0.104352
"2018-06-07 01:11:53.644 +0000",1528333913.644330,-2.272224,0.479249,1.331825,-0.677856,-0.461113,0.572607,0.000000,0.000000,0.000000,-1,-1.926280,2.711838,2.755033,-0.758088,0.035026,-0.369314
"2018-06-07 01:11:53.654 +0000",1528333913.654404,-2.231734,0.470573,1.296965,-0.703610,-0.453397,0.547134,0.000000,0.000000,0.000000,-1,-1.823587,2.353981,2.556913,-0.359790,-0.059695,-0.722198
"2018-06-07 01:11:53.664 +0000",1528333913.664478,-2.199592,0.462895,1.264424,-0.723624,-0.446540,0.526271,0.000000,0.000000,0.000000,-1,-1.879482,1.467963,2.285553,-0.371011,0.242591,-0.717922
"2018-06-07 01:11:53.675 +0000",1528333913.674552,-2.177453,0.453175,1.232110,-0.738628,-0.437822,0.512574,0.000000,0.000000,0.000000,-1,-1.723387,0.621881,2.579612,0.082592,0.027635,-0.559266
"2018-06-07 01:11:53.685 +0000",1528333913.684627,-2.163189,0.436969,1.200732,-0.751652,-0.423195,0.505882,0.000000,0.000000,0.000000,-1,-1.299490,-0.091147,2.998220,0.466785,-0.260169,-0.445518
"2018-06-07 01:11:53.695 +0000",1528333913.694701,-2.148266,0.414962,1.173455,-0.766736,-0.403155,0.499572,0.000000,0.000000,0.000000,-1,-0.682160,0.691296,3.209909,0.308591,-0.139233,-0.398803
"2018-06-07 01:11:53.705 +0000",1528333913.704775,-2.126233,0.393152,1.150658,-0.784841,-0.383102,0.487081,0.000000,0.000000,0.000000,-1,-0.629020,1.546865,2.886355,-0.432261,-0.167816,-0.454808
"2018-06-07 01:11:53.715 +0000",1528333913.714849,-2.087331,0.372415,1.125212,-0.809926,-0.363866,0.460013,0.000000,0.000000,0.000000,-1,-1.178512,3.346473,2.959539,-0.306270,-0.226771,0.579263
"2018-06-07 01:11:53.725 +0000",1528333913.724923,-2.040487,0.361361,1.093945,-0.834114,-0.353547,0.423377,0.000000,0.000000,0.000000,-1,-2.179268,3.388983,2.105741,-0.400627,0.221833,0.812341
"2018-06-07 01:11:53.735 +0000",1528333913.734997,-2.007464,0.350493,1.068577,-0.851069,-0.343361,0.397208,0.000000,0.000000,0.000000,-1,-1.427701,2.066265,2.057146,-0.021092,-0.012123,-0.431357
"2018-06-07 01:11:53.745 +0000",1528333913.745071,-1.986337,0.335426,1.047634,-0.863906,-0.329171,0.381185,0.000000,0.000000,0.000000,-1,-1.158718,1.247705,2.145579,0.425781,0.010873,-0.402120
"2018-06-07 01:11:53.755 +0000",1528333913.755145,-1.968969,0.325527,1.026407,-0.873357,-0.319808,0.367370,0.000000,0.000000,0.000000,-1,-1.546474,1.004463,1.515431,-0.349498,0.286575,0.300614
"2018-06-07 01:11:53.765 +0000",1528333913.765219,-1.951349,0.321084,1.005823,-0.881005,-0.315596,0.352449,0.000000,0.000000,0.000000,-1,-1.612355,1.151138,1.049179,-0.488487,-0.019854,0.179641
"2018-06-07 01:11:53.775 +0000",1528333913.775294,-1.934689,0.319370,0.987492,-0.887258,-0.313969,0.337916,0.000000,0.000000,0.000000,-1,-1.527588,1.025517,0.694732,-0.299693,0.039952,-0.022699
"2018-06-07 01:11:53.785 +0000",1528333913.785368,-1.922619,0.319346,0.971774,-0.891279,-0.313946,0.327184,0.000000,0.000000,0.000000,-1,-1.321865,0.594412,0.492937,-0.055895,0.332455,-0.096075
"2018-06-07 01:11:53.795 +0000",1528333913.795442,-1.917779,0.318970,0.959015,-0.892964,-0.313589,0.322907,0.000000,0.000000,0.000000,-1,-1.057118,-0.078626,0.431212,0.163044,0.343313,-0.179032
"2018-06-07 01:11:53.806 +0000",1528333913.805516,-1.918314,0.319659,0.948963,-0.892587,-0.314243,0.323312,0.000000,0.000000,0.000000,-1,-0.869928,-0.426105,0.170542,0.006113,0.231906,-0.209847
"2018-06-07 01:11:53.816 +0000",1528333913.815590,-1.920499,0.324723,0.942204,-0.890372,-0.319046,0.324711,0.000000,0.000000,0.000000,-1,-0.734205,-0.418917,-0.407369,-0.241036,0.185303,-0.179005
"2018-06-07 01:11:53.826 +0000",1528333913.825664,-1.924403,0.334429,0.940319,-0.886151,-0.328230,0.327097,0.000000,0.000000,0.000000,-1,-0.393595,-0.464938,-0.988055,-0.237781,0.248609,-0.321329
"2018-06-07 01:11:53.836 +0000",1528333913.835738,-1.932550,0.347708,0.945518,-0.879303,-0.340743,0.332733,0.000000,0.000000,0.000000,-1,0.120311,-0.727954,-1.540728,-0.165192,0.279388,-0.434433
"2018-06-07 01:11:53.846 +0000",1528333913.845812,-1.949876,0.364946,0.956781,-0.867820,-0.356899,0.345693,0.000000,0.000000,0.000000,-1,0.403922,-1.560124,-2.124646,-0.211007,0.233898,-0.353368
"2018-06-07 01:11:53.856 +0000",1528333913.855887,-1.977704,0.387208,0.970614,-0.850357,-0.377605,0.366469,0.000000,0.000000,0.000000,-1,0.293375,-2.473724,-2.661646,-0.264481,0.236308,-0.368453
"2018-06-07 01:11:53.866 +0000",1528333913.865961,-2.013642,0.414585,0.985292,-0.826987,-0.402810,0.392208,0.000000,0.000000,0.000000,-1,0.027692,-3.141031,-3.133036,-0.325784,0.041131,-0.315182
"2018-06-07 01:11:53.876 +0000",1528333913.876035,-2.051937,0.442209,0.999603,-0.801192,-0.427937,0.418272,0.000000,0.000000,0.000000,-1,-0.051396,-3.193616,-2.949073,-0.198442,-0.271938,-0.443540
"2018-06-07 01:11:53.886 +0000",1528333913.886109,-2.096915,0.464766,1.014779,-0.773030,-0.448214,0.448910,0.000000,0.000000,0.000000,-1,0.198747,-4.017207,-2.458320,0.044880,-0.499036,-0.734188
"2018-06-07 01:11:53.896 +0000",1528333913.896183,-2.150879,0.479651,1.031365,-0.742028,-0.461470,0.486241,0.000000,0.000000,0.000000,-1,0.542808,-4.769479,-1.896583,0.155831,-0.581606,-0.694066
"2018-06-07 01:11:53.906 +0000",1528333913.906257,-2.206307,0.487015,1.044454,-0.711197,-0.467990,0.524571,0.000000,0.000000,0.000000,-1,0.508659,-4.854583,-0.995362,0.424866,-0.375669,-0.371770
"2018-06-07 01:11:53.916 +0000",1528333913.916331,-2.251197,0.485663,1.049727,-0.687432,-0.466794,0.556355,0.000000,0.000000,0.000000,-1,0.438601,-3.925077,0.079921,0.734185,-0.150698,0.150661
"2018-06-07 01:11:53.926 +0000",1528333913.926405,-2.277376,0.477289,1.048815,-0.675583,-0.459373,0.576676,0.000000,0.000000,0.000000,-1,0.500304,-2.158540,0.854005,0.673584,-0.088433,0.342971
"2018-06-07 01:11:53.936 +0000",1528333913.936479,-2.285588,0.463266,1.046379,-0.675623,-0.446872,0.586369,0.000000,0.000000,0.000000,-1,0.847346,-0.580793,1.286982,0.460093,0.036945,0.285686
"2018-06-07 01:11:53.947 +0000",1528333913.946554,-2.285205,0.444683,1.043851,-0.682004,-0.430172,0.591450,0.000000,0.000000,0.000000,-1,1.069904,0.011149,1.638854,0.288465,0.132549,0.108608
"2018-06-07 01:11:53.957 +0000",1528333913.956628,-2.282317,0.424760,1.037014,-0.690064,-0.412102,0.594957,0.000000,0.000000,0.000000,-1,0.684007,-0.015466,1.970959,0.206651,0.139305,0.126082
"2018-06-07 01:11:53.967 +0000",1528333913.966702,-2.273882,0.409000,1.028029,-0.699926,-0.397692,0.593241,0.000000,0.000000,0.000000,-1,0.373856,0.788112,1.500723,0.127127,0.259524,0.437719
"2018-06-07 01:11:53.977 +0000",1528333913.976776,-2.262643,0.401505,1.022134,-0.708825,-0.390804,0.587223,0.000000,0.000000,0.000000,-1,-0.068032,0.810782,0.774665,-0.114569,0.602520,0.463696
"2018-06-07 01:11:53.987 +0000",1528333913.986850,-2.253356,0.398327,1.015251,-0.715208,-0.387877,0.581395,0.000000,0.000000,0.000000,-1,-0.329378,0.603145,0.639129,-0.300432,0.408873,0.083949
"2018-06-07 01:11:53.997 +0000",1528333913.996924,-2.246263,0.395687,1.007858,-0.720111,-0.385442,0.576946,0.000000,0.000000,0.000000,-1,-0.362525,0.362770,0.608388,-0.142530,0.249928,-0.089641
"2018-06-07 01:11:54.007 +0000",1528333914.006998,-2.242068,0.393488,1.002100,-0.723186,-0.383413,0.574446,0.000000,0.000000,0.000000,-1,-0.233059,0.139792,0.463307,0.043178,0.084081,-0.113219
"2018-06-07 01:11:54.017 +0000",1528333914.017072,-2.241114,0.391124,0.998797,-0.724442,-0.381228,0.574317,0.000000,0.000000,0.000000,-1,-0.050185,-0.079829,0.338550,0.117173,-0.094785,-0.066429
"2018-06-07 01:11:54.027 +0000",1528333914.027146,-2.242094,0.389560,0.997518,-0.724346,-0.379781,0.575397,0.000000,0.000000,0.000000,-1,0.009188,-0.156771,0.139196,0.118968,-0.126216,0.008221
"2018-06-07 01:11:54.037 +0000",1528333914.037221,-2.243708,0.389746,0.997464,-0.723361,-0.379953,0.576521,0.000000,0.000000,0.000000,-1,-0.026138,-0.156086,-0.047884,0.078799,-0.114859,0.027589
"2018-06-07 01:11:54.047 +0000",1528333914.047295,-2.245632,0.390988,0.997623,-0.721881,-0.381102,0.577617,0.000000,0.000000,0.000000,-1,-0.079099,-0.211917,-0.119993,-0.018674,-0.062959,-0.004940
"2018-06-07 01:11:54.057 +0000",1528333914.057369,-2.247761,0.392405,0.997341,-0.720228,-0.382412,0.578814,0.000000,0.000000,0.000000,-1,-0.115123,-0.204500,-0.080090,-0.101733,-0.018772,-0.087801
"2018-06-07 01:11:54.067 +0000",1528333914.067443,-2.247736,0.393985,0.996485,-0.719770,-0.383871,0.578417,0.000000,0.000000,0.000000,-1,-0.182557,0.037930,-0.082457,-0.186022,0.028036,-0.101915
"2018-06-07 01:11:54.078 +0000",1528333914.077517,-2.245312,0.397156,0.995334,-0.720217,-0.386797,0.575907,0.000000,0.000000,0.000000,-1,-0.314066,0.224736,-0.213917,-0.188887,0.045443,-0.090342
"2018-06-07 01:11:54.088 +0000",1528333914.087591,-2.242436,0.401695,0.993847,-0.720488,-0.390979,0.572735,0.000000,0.000000,0.000000,-1,-0.400783,0.224746,-0.273955,-0.074434,-0.022214,-0.082211
"2018-06-07 01:11:54.098 +0000",1528333914.097665,-2.240349,0.405691,0.992369,-0.720451,-0.394654,0.570256,0.000000,0.000000,0.000000,-1,-0.325577,0.111599,-0.205615,0.039069,-0.103317,-0.065800
"2018-06-07 01:11:54.108 +0000",1528333914.107739,-2.240104,0.408154,0.991503,-0.719826,-0.396915,0.569474,0.000000,0.000000,0.000000,-1,-0.174810,-0.044209,-0.123589,0.051308,-0.104397,-0.060228
"2018-06-07 01:11:54.118 +0000",1528333914.117813,-2.240771,0.409450,0.991214,-0.719042,-0.398105,0.569635,0.000000,0.000000,0.000000,-1,-0.083766,-0.072695,-0.076552,-0.034636,-0.056256,-0.060327
"2018-06-07 01:11:54.128 +0000",1528333914.127888,-2.241192,0.410608,0.990974,-0.718440,-0.399167,0.569650,0.000000,0.000000,0.000000,-1,-0.098491,-0.043092,-0.077507,-0.084569,-0.016315,-0.073099
"2018-06-07 01:11:54.138 +0000",1528333914.137962,-2.241060,0.412400,0.990513,-0.717954,-0.400809,0.569110,0.000000,0.000000,0.000000,-1,-0.161113,0.005278,-0.135308,-0.054980,0.009330,-0.074817
"2018-06-07 01:11:54.148 +0000",1528333914.148036,-2.210910,0.402628,0.978299,-0.737890,-0.391837,0.549522,0.000000,0.000000,0.000000,-1,-0.229352,-0.022878,-0.272916,0.015722,-0.023263,-0.057823
"2018-06-07 01:11:54.158 +0000",1528333914.158110,-2.189195,0.395340,0.969889,-0.751955,-0.385122,0.535011,0.000000,0.000000,0.000000,-1,-0.228738,-0.017049,-0.353574,0.114565,-0.082377,-0.015587
"2018-06-07 01:11:54.168 +0000",1528333914.168184,-2.182693,0.401530,0.967763,-0.753451,-0.390827,0.528732,0.000000,0.000000,0.000000,-1,-0.189392,-0.071593,-0.409757,0.161761,-0.134793,-0.001586
"2018-06-07 01:11:54.178 +0000",1528333914.178258,-2.187327,0.418558,0.970176,-0.745455,-0.406443,0.528293,0.000000,0.000000,0.000000,-1,-0.181220,-0.184252,-0.502608,0.121065,-0.131246,-0.023059
"2018-06-07 01:11:54.188 +0000",1528333914.188332,-2.194818,0.435425,0.973438,-0.735808,-0.421796,0.529780,0.000000,0.000000,0.000000,-1,-0.228237,-0.416523,-0.643010,0.095198,-0.123568,-0.044367
"2018-06-07 01:11:54.198 +0000",1528333914.198406,-2.199857,0.444514,0.974448,-0.729999,-0.430019,0.531203,0.000000,0.000000,0.000000,-1,-0.252780,-0.796253,-0.682782,0.059955,-0.183979,-0.097579
"2018-06-07 01:11:54.208 +0000",1528333914.208481,-2.206101,0.448105,0.973917,-0.725420,-0.433259,0.534831,0.000000,0.000000,0.000000,-1,-0.173522,-1.240071,-0.554101,0.037523,-0.300674,-0.205974
"2018-06-07 01:11:54.219 +0000",1528333914.218555,-2.222595,0.452033,0.976425,-0.715142,-0.436795,0.545686,0.000000,0.000000,0.000000,-1,-0.016745,-1.614591,-0.407111,0.028893,-0.357593,-0.239198
"2018-06-07 01:11:54.229 +0000",1528333914.228629,-2.241139,0.453559,0.978628,-0.704377,-0.438168,0.558439,0.000000,0.000000,0.000000,-1,0.085583,-1.754698,-0.174338,-0.013778,-0.389332,-0.158994
"2018-06-07 01:11:54.239 +0000",1528333914.238703,-2.256900,0.452114,0.979078,-0.695978,-0.436868,0.569871,0.000000,0.000000,0.000000,-1,0.123508,-1.448716,0.183580,-0.048895,-0.356513,0.010619
"2018-06-07 01:11:54.249 +0000",1528333914.248777,-2.266348,0.447843,0.975980,-0.691989,-0.433023,0.577611,0.000000,0.000000,0.000000,-1,0.029427,-0.938100,0.609085,-0.044049,-0.346869,0.183894
"2018-06-07 01:11:54.259 +0000",1528333914.258851,-2.268385,0.441235,0.968810,-0.692989,-0.427056,0.580845,0.000000,0.000000,0.000000,-1,-0.101309,-0.367120,1.013336,0.004634,-0.274222,0.260326
"2018-06-07 01:11:54.269 +0000",1528333914.268925,-2.264633,0.432291,0.958952,-0.698072,-0.418952,0.580661,0.000000,0.000000,0.000000,-1,-0.103997,0.045480,1.312496,0.040129,-0.249490,0.180875
"2018-06-07 01:11:54.279 +0000",1528333914.278999,-2.257514,0.421383,0.947790,-0.705680,-0.409023,0.578540,0.000000,0.000000,0.000000,-1,-0.091233,0.300370,1.533716,0.053062,-0.212986,0.057050
"2018-06-07 01:11:54.289 +0000",1528333914.289073,-2.248720,0.409276,0.934483,-0.714545,-0.397945,0.575375,0.000000,0.000000,0.000000,-1,-0.223188,0.335313,1.752475,0.070075,-0.137806,0.077212
"2018-06-07 01:11:54.299 +0000",1528333914.299148,-2.238869,0.395883,0.918400,-0.724298,-0.385623,0.571559,0.000000,0.000000,0.000000,-1,-0.333541,0.372265,2.030352,0.103051,-0.199338,0.074956
"2018-06-07 01:11:54.309 +0000",1528333914.309222,-2.227442,0.378249,0.901099,-0.736053,-0.369294,0.567309,0.000000,0.000000,0.000000,-1,-0.107145,0.522486,2.484193,0.157944,-0.119415,-0.014193
"2018-06-07 01:11:54.319 +0000",1528333914.319296,-2.216924,0.353034,0.882575,-0.749178,-0.345746,0.564964,0.000000,0.000000,0.000000,-1,0.243264,0.286429,3.249639,0.167223,-0.045733,-0.211952
"2018-06-07 01:11:54.329 +0000",1528333914.329370,-2.206820,0.320211,0.860231,-0.763569,-0.314767,0.563805,0.000000,0.000000,0.000000,-1,0.230844,0.334679,4.040406,0.152821,-0.024329,-0.241219
"2018-06-07 01:11:54.339 +0000",1528333914.339444,-2.195497,0.283894,0.833962,-0.778667,-0.280096,0.561442,0.000000,0.000000,0.000000,-1,0.092260,0.324919,4.444062,-0.044148,0.217093,0.105154
"2018-06-07 01:11:54.350 +0000",1528333914.349518,-2.184389,0.249359,0.809524,-0.792294,-0.246783,0.557997,0.000000,0.000000,0.000000,-1,0.071288,0.523201,4.004748,-0.269244,0.098956,0.130617
"2018-06-07 01:11:54.360 +0000",1528333914.359592,-2.172092,0.219129,0.785957,-0.804882,-0.217379,0.552182,0.000000,0.000000,0.000000,-1,-0.243878,0.710153,3.716665,-0.258534,-0.062162,0.208881
"2018-06-07 01:11:54.370 +0000",1528333914.369666,-2.157217,0.192991,0.762414,-0.817461,-0.191795,0.543108,0.000000,0.000000,0.000000,-1,-0.508866,1.031684,3.306236,-0.119521,-0.105736,0.161558
"2018-06-07 01:11:54.380 +0000",1528333914.379740,-2.144432,0.172193,0.739378,-0.827509,-0.171344,0.534662,0.000000,0.000000,0.000000,-1,-0.831775,0.792293,2.848054,-0.048162,0.068804,-0.048059
"2018-06-07 01:11:54.390 +0000",1528333914.389815,-2.134385,0.157626,0.715726,-0.834861,-0.156974,0.527599,0.000000,0.000000,0.000000,-1,-1.294970,0.537386,2.332063,0.125464,0.048103,-0.113582
"2018-06-07 01:11:54.400 +0000",1528333914.399889,-2.126668,0.149120,0.690896,-0.840011,-0.148568,0.521826,0.000000,0.000000,0.000000,-1,-1.700320,0.367779,1.932358,0.337021,0.095681,-0.070669
"2018-06-07 01:11:54.410 +0000",1528333914.409963,-2.119962,0.143657,0.665744,-0.844171,-0.143164,0.516597,0.000000,0.000000,0.000000,-1,-1.831775,0.241063,1.695649,0.341181,0.090277,-0.065440
"2018-06-07 01:11:54.420 +0000",1528333914.420037,-2.119860,0.138539,0.642244,-0.844838,-0.138097,0.516886,0.000000,0.000000,0.000000,-1,-1.651088,-0.536568,1.651023,0.472936,0.187550,-0.126826
"2018-06-07 01:11:54.430 +0000",1528333914.430111,-2.128774,0.131982,0.620060,-0.840947,-0.131599,0.524865,0.000000,0.000000,0.000000,-1,-1.482608,-1.381588,1.699810,0.301397,0.146842,-0.206979
"2018-06-07 01:11:54.440 +0000",1528333914.440185,-2.145089,0.127283,0.598574,-0.832782,-0.126939,0.538845,0.000000,0.000000,0.000000,-1,-1.548133,-2.076618,1.427951,0.003101,0.214632,-0.159222
"2018-06-07 01:11:54.450 +0000",1528333914.450259,-2.165555,0.126348,0.581181,-0.821679,-0.126013,0.555840,0.000000,0.000000,0.000000,-1,-1.300173,-2.220770,0.888066,-0.318839,0.174749,-0.153848
"2018-06-07 01:11:54.460 +0000",1528333914.460333,-2.184062,0.127203,0.569769,-0.811163,-0.126860,0.570889,0.000000,0.000000,0.000000,-1,-0.848895,-1.881904,0.483576,-0.413843,0.085616,-0.141064
"2018-06-07 01:11:54.470 +0000",1528333914.470407,-2.199072,0.126662,0.562693,-0.802559,-0.126324,0.583040,0.000000,0.000000,0.000000,-1,-0.449972,-1.485503,0.461227,-0.422447,0.085079,-0.153215
"2018-06-07 01:11:54.480 +0000",1528333914.480482,-2.210943,0.124004,0.556370,-0.795847,-0.123686,0.592725,0.000000,0.000000,0.000000,-1,-0.332864,-1.191685,0.630689,-0.058431,-0.006655,-0.033063
"2018-06-07 01:11:54.491 +0000",1528333914.490556,-2.220829,0.119937,0.548520,-0.790343,-0.119650,0.600863,0.000000,0.000000,0.000000,-1,-0.395474,-1.067571,0.835566,-0.016389,-0.034220,0.022443
"2018-06-07 01:11:54.501 +0000",1528333914.500630,-2.231937,0.115342,0.540075,-0.784046,-0.115086,0.609936,0.000000,0.000000,0.000000,-1,-0.364029,-1.246548,0.866167,-0.011242,-0.091930,-0.040722
"2018-06-07 01:11:54.511 +0000",1528333914.510704,-2.244134,0.110336,0.532071,-0.776989,-0.110112,0.619805,0.000000,0.000000,0.000000,-1,-0.298014,-1.305760,0.893811,0.038753,-0.113780,-0.022454
"2018-06-07 01:11:54.521 +0000",1528333914.520778,-2.256481,0.104631,0.523593,-0.769750,-0.104440,0.629739,0.000000,0.000000,0.000000,-1,-0.306150,-1.324882,0.998111,0.117742,-0.050757,-0.019540
"2018-06-07 01:11:54.531 +0000",1528333914.530852,-2.269999,0.099138,0.513748,-0.761595,-0.098975,0.640445,0.000000,0.000000,0.000000,-1,-0.435497,-1.497766,1.039855,0.110411,0.076240,-0.050769
"2018-06-07 01:11:54.541 +0000",1528333914.540926,-2.286952,0.095341,0.503154,-0.750907,-0.095197,0.653506,0.000000,0.000000,0.000000,-1,-0.580297,-1.899508,0.933605,0.038962,0.218244,-0.088901
"2018-06-07 01:11:54.551 +0000",1528333914.551000,-2.306742,0.091615,0.493762,-0.738086,-0.091487,0.668471,0.000000,0.000000,0.000000,-1,-0.372946,-2.029396,0.892953,-0.024442,0.095363,-0.145598
"2018-06-07 01:11:54.561 +0000",1528333914.561074,-2.322492,0.087092,0.487010,-0.727761,-0.086982,0.680288,0.000000,0.000000,0.000000,-1,-0.154889,-1.473781,0.741328,-0.124229,-0.201653,0.004450
"2018-06-07 01:11:54.571 +0000",1528333914.571149,-2.333063,0.082992,0.480862,-0.720781,-0.082897,0.688183,0.000000,0.000000,0.000000,-1,-0.163464,-0.998318,0.705083,-0.106337,-0.110035,0.156467
"2018-06-07 01:11:54.581 +0000",1528333914.581223,-2.340803,0.079109,0.475301,-0.715658,-0.079026,0.693960,0.000000,0.000000,0.000000,-1,-0.111742,-0.767383,0.643249,-0.106134,0.023271,0.080393
"2018-06-07 01:11:54.591 +0000",1528333914.591297,-2.347146,0.075443,0.470771,-0.711444,-0.075371,0.698684,0.000000,0.000000,0.000000,-1,-0.056533,-0.626320,0.548877,-0.111935,0.072960,-0.081100
"2018-06-07 01:11:54.601 +0000",1528333914.601371,-2.351909,0.072600,0.466797,-0.708257,-0.072536,0.702213,0.000000,0.000000,0.000000,-1,-0.099005,-0.471249,0.452617,-0.090892,0.028789,-0.085453
"2018-06-07 01:11:54.611 +0000",1528333914.611445,-2.356361,0.071019,0.462593,-0.705204,-0.070959,0.705439,0.000000,0.000000,0.000000,-1,-0.213009,-0.485581,0.391524,-0.043331,0.002264,-0.011699
"2018-06-07 01:11:54.622 +0000",1528333914.621519,-2.361304,0.070090,0.458134,-0.701755,-0.070032,0.708963,0.000000,0.000000,0.000000,-1,-0.248646,-0.528475,0.387179,-0.000333,-0.024725,-0.032892
"2018-06-07 01:11:54.632 +0000",1528333914.631593,-2.365015,0.068968,0.453694,-0.699174,-0.068913,0.711618,0.000000,0.000000,0.000000,-1,-0.245822,-0.361698,0.409170,0.032243,-0.091167,-0.013864
"2018-06-07 01:11:54.642 +0000",1528333914.641667,-2.368843,0.068124,0.448354,-0.696485,-0.068071,0.714331,0.000000,0.000000,0.000000,-1,-0.333239,-0.440054,0.450017,-0.009478,-0.136702,0.043512
"2018-06-07 01:11:54.652 +0000",1528333914.651741,-2.374406,0.066323,0.442420,-0.692585,-0.066274,0.718281,0.000000,0.000000,0.000000,-1,-0.245788,-0.642329,0.576155,0.059162,-0.105082,-0.060871
"2018-06-07 01:11:54.662 +0000",1528333914.661816,-2.382407,0.062303,0.436619,-0.686993,-0.062263,0.723987,0.000000,0.000000,0.000000,-1,-0.062907,-0.882863,0.726702,0.096768,0.069084,-0.223911
"2018-06-07 01:11:54.672 +0000",1528333914.671890,-2.392320,0.056052,0.430638,-0.680035,-0.056022,0.731033,0.000000,0.000000,0.000000,-1,0.092448,-1.045609,0.895825,0.011471,0.186866,-0.231414
"2018-06-07 01:11:54.682 +0000",1528333914.681964,-2.402314,0.046902,0.425148,-0.673012,-0.046885,0.738140,0.000000,0.000000,0.000000,-1,0.398019,-1.027801,1.040389,-0.083702,0.005335,-0.040722
"2018-06-07 01:11:54.692 +0000",1528333914.692038,-2.414905,0.033103,0.422858,-0.664032,-0.033097,0.746968,0.000000,0.000000,0.000000,-1,1.057298,-1.355650,1.123977,-0.041550,-0.231490,-0.033436
"2018-06-07 01:11:54.702 +0000",1528333914.702112,-2.434355,0.008539,0.422762,-0.649711,-0.008539,0.760130,0.000000,0.000000,0.000000,-1,2.120604,-2.226341,1.867658,0.310279,-0.553564,-0.516569
"2018-06-07 01:11:54.712 +0000",1528333914.712186,-2.468426,-0.030916,0.421625,-0.623165,0.030911,0.781476,0.000000,0.000000,0.000000,-1,3.113622,-3.738087,2.816159,0.657528,-1.404034,-1.160794
"2018-06-07 01:11:54.722 +0000",1528333914.722260,-2.515827,-0.078061,0.416552,-0.583933,0.077981,0.808044,0.000000,0.000000,0.000000,-1,3.558599,-4.943073,3.285994,0.882441,-0.462167,-0.732468
"2018-06-07 01:11:54.732 +0000",1528333914.732334,-2.558000,-0.127104,0.413988,-0.546579,0.126762,0.827754,0.000000,0.000000,0.000000,-1,3.862325,-3.550487,2.817141,0.408029,0.790032,0.058064
"2018-06-07 01:11:54.742 +0000",1528333914.742408,-2.558219,-0.160955,0.410665,-0.543721,0.160261,0.823819,0.000000,0.000000,0.000000,-1,2.126931,1.080168,1.866506,-0.977519,0.941835,2.073444
"2018-06-07 01:11:54.752 +0000",1528333914.752483,-2.546588,-0.176388,0.406738,-0.551814,0.175475,0.815294,0.000000,0.000000,0.000000,-1,0.785456,0.909001,0.955857,-1.189489,0.691697,1.480742
"2018-06-07 01:11:54.763 +0000",1528333914.762557,-2.544741,-0.183193,0.403995,-0.552635,0.182170,0.813266,0.000000,0.000000,0.000000,-1,0.350398,0.168584,0.528744,-0.593040,0.482030,-0.339145
"2018-06-07 01:11:54.773 +0000",1528333914.772631,-2.540696,-0.187878,0.401493,-0.555432,0.186774,0.810312,0.000000,0.000000,0.000000,-1,0.200352,0.553767,0.461367,-0.119541,0.140832,-0.483697
"2018-06-07 01:11:54.783 +0000",1528333914.782705,-2.535318,-0.191316,0.396440,-0.559412,0.190151,0.806781,0.000000,0.000000,0.000000,-1,-0.055455,0.607086,0.666480,0.198709,-0.084041,-0.265307
"2018-06-07 01:11:54.793 +0000",1528333914.792779,-2.533706,-0.201065,0.389302,-0.559627,0.199713,0.804317,0.000000,0.000000,0.000000,-1,0.727184,0.108400,1.256994,0.213283,-0.365881,-0.108395
"2018-06-07 01:11:54.803 +0000",1528333914.802853,-2.536651,-0.222195,0.387875,-0.554731,0.220372,0.802312,0.000000,0.000000,0.000000,-1,1.789924,-0.279762,1.330877,-0.015963,-0.555561,-0.063237
"2018-06-07 01:11:54.813 +0000",1528333914.812927,-2.536381,-0.241866,0.384714,-0.552374,0.239515,0.798442,0.000000,0.000000,0.000000,-1,1.256847,0.233573,1.340045,0.204657,-0.392042,0.455815
"2018-06-07 01:11:54.823 +0000",1528333914.823001,-2.532408,-0.255827,0.378133,-0.553575,0.253046,0.793421,0.000000,0.000000,0.000000,-1,0.656047,0.674528,1.286770,0.233323,-0.088205,-0.001963
"2018-06-07 01:11:54.833 +0000",1528333914.833075,-2.526073,-0.266208,0.371789,-0.557043,0.263075,0.787711,0.000000,0.000000,0.000000,-1,0.472114,0.770650,1.017484,-0.067408,0.262850,-0.331763
"2018-06-07 01:11:54.843 +0000",1528333914.843150,-2.522060,-0.275362,0.369050,-0.558777,0.271895,0.783476,0.000000,0.000000,0.000000,-1,0.642410,0.351158,0.640474,-0.381561,0.163728,-0.095930
"2018-06-07 01:11:54.853 +0000",1528333914.853224,-2.521028,-0.283059,0.369669,-0.558352,0.279295,0.781173,0.000000,0.000000,0.000000,-1,0.628300,0.016498,0.330822,-0.255704,0.038546,0.152451
"2018-06-07 01:11:54.863 +0000",1528333914.863298,-2.521573,-0.288662,0.370425,-0.557008,0.284670,0.780191,0.000000,0.000000,0.000000,-1,0.446173,-0.075925,0.259978,0.029253,-0.118777,0.167197
"2018-06-07 01:11:54.873 +0000",1528333914.873372,-2.520349,-0.292059,0.369291,-0.557397,0.287924,0.778718,0.000000,0.000000,0.000000,-1,0.120078,0.245812,0.284249,0.078119,-0.202216,-0.034028
"2018-06-07 01:11:54.883 +0000",1528333914.883446,-2.515892,-0.292966,0.366250,-0.560710,0.288793,0.776014,0.000000,0.000000,0.000000,-1,-0.150221,0.615003,0.285942,-0.008382,-0.152898,-0.189893
"2018-06-07 01:11:54.894 +0000",1528333914.893520,-2.509229,-0.292919,0.362682,-0.565876,0.288748,0.772272,0.000000,0.000000,0.000000,-1,-0.208956,0.791717,0.253246,-0.097699,-0.053350,-0.209025
"2018-06-07 01:11:54.904 +0000",1528333914.903594,-2.501070,-0.291561,0.360060,-0.572391,0.287447,0.767943,0.000000,0.000000,0.000000,-1,-0.277976,0.937244,0.059135,-0.111325,0.183408,-0.087478
"2018-06-07 01:11:54.914 +0000",1528333914.913668,-2.489157,-0.287558,0.359432,-0.582193,0.283611,0.761978,0.000000,0.000000,0.000000,-1,-0.381820,1.299531,-0.277325,-0.103827,0.327549,0.001434
"2018-06-07 01:11:54.924 +0000",1528333914.923742,-2.473105,-0.280478,0.360677,-0.595578,0.276815,0.754092,0.000000,0.000000,0.000000,-1,-0.508880,1.637531,-0.596593,-0.062167,0.257883,-0.015246
"2018-06-07 01:11:54.934 +0000",1528333914.933816,-2.456304,-0.270817,0.362795,-0.609827,0.267519,0.746015,0.000000,0.000000,0.000000,-1,-0.676447,1.514889,-0.781577,-0.005727,0.074095,-0.043088
"2018-06-07 01:11:54.944 +0000",1528333914.943891,-2.446333,-0.260053,0.362801,-0.619044,0.257132,0.742066,0.000000,0.000000,0.000000,-1,-0.854327,0.824434,-0.647647,0.119898,-0.166693,0.040038
"2018-06-07 01:11:54.954 +0000",1528333914.953965,-2.440778,-0.248274,0.361203,-0.625067,0.245732,0.740880,0.000000,0.000000,0.000000,-1,-1.053694,0.549402,-0.639386,0.123495,-0.077732,0.054820
"2018-06-07 01:11:54.964 +0000",1528333914.964039,-2.436053,-0.234503,0.358360,-0.630695,0.232359,0.740424,0.000000,0.000000,0.000000,-1,-1.270634,0.536979,-0.700237,0.080921,0.028123,-0.109656
"2018-06-07 01:11:54.974 +0000",1528333914.974113,-2.431857,-0.217499,0.355163,-0.636279,0.215788,0.740661,0.000000,0.000000,0.000000,-1,-1.583923,0.468999,-0.927754,0.001590,0.137819,-0.168762
"2018-06-07 01:11:54.984 +0000",1528333914.984187,-2.431829,-0.194745,0.350573,-0.639335,0.193516,0.744176,0.000000,0.000000,0.000000,-1,-2.132704,-0.163728,-1.194022,-0.075432,0.238857,-0.089024
"2018-06-07 01:11:54.994 +0000",1528333914.994261,-2.443495,-0.169680,0.347426,-0.633529,0.168867,0.755063,0.000000,0.000000,0.000000,-1,-2.031120,-1.229474,-1.433997,-0.224976,0.251483,-0.156140
"2018-06-07 01:11:55.004 +0000",1528333915.004335,-2.451610,-0.147940,0.346907,-0.629570,0.147401,0.762831,0.000000,0.000000,0.000000,-1,-1.483760,-0.641938,-1.387287,-0.222985,0.153441,0.107485
"2018-06-07 01:11:55.014 +0000",1528333915.014409,-2.451031,-0.132675,0.351366,-0.631371,0.132286,0.764112,0.000000,0.000000,0.000000,-1,-0.694580,0.201744,-1.267244,-0.053917,0.000679,0.132006
"2018-06-07 01:11:55.024 +0000",1528333915.024483,-2.443299,-0.123552,0.359605,-0.638009,0.123238,0.760100,0.000000,0.000000,0.000000,-1,-0.031995,0.788332,-1.179928,0.144174,-0.104592,0.148759
"2018-06-07 01:11:55.035 +0000",1528333915.034558,-2.432550,-0.117493,0.369452,-0.646617,0.117223,0.753751,0.000000,0.000000,0.000000,-1,0.201566,0.966550,-1.115405,0.203013,-0.026708,0.111315
"2018-06-07 01:11:55.045 +0000",1528333915.044632,-2.423014,-0.111917,0.378967,-0.654195,0.111684,0.748031,0.000000,0.000000,0.000000,-1,0.184487,0.779635,-1.056749,0.131032,0.049434,0.013199
"2018-06-07 01:11:55.055 +0000",1528333915.054706,-2.416121,-0.106437,0.387437,-0.659732,0.106236,0.743951,0.000000,0.000000,0.000000,-1,0.136797,0.535440,-0.971299,0.036472,0.064815,-0.066232
"2018-06-07 01:11:55.065 +0000",1528333915.064780,-2.411267,-0.100963,0.395994,-0.663714,0.100791,0.741162,0.000000,0.000000,0.000000,-1,0.166604,0.347923,-0.999880,-0.046201,0.082558,-0.093213
"2018-06-07 01:11:55.075 +0000",1528333915.074854,-2.407362,-0.095568,0.404954,-0.666957,0.095423,0.738958,0.000000,0.000000,0.000000,-1,0.197259,0.299789,-1.019451,-0.057256,0.083914,-0.068425
"2018-06-07 01:11:55.085 +0000",1528333915.084928,-2.402960,-0.089924,0.413615,-0.670555,0.089803,0.736401,0.000000,0.000000,0.000000,-1,0.143544,0.391819,-1.011531,-0.043541,0.096751,0.030384
"2018-06-07 01:11:55.095 +0000",1528333915.095002,-2.396503,-0.084261,0.422622,-0.675630,0.084161,0.732418,0.000000,0.000000,0.000000,-1,0.224514,0.628238,-1.052979,-0.068907,0.147238,0.064274
"2018-06-07 01:11:55.105 +0000",1528333915.105076,-2.387616,-0.079696,0.433016,-0.682368,0.079612,0.726657,0.000000,0.000000,0.000000,-1,0.407106,0.837340,-1.057091,-0.098363,0.118493,-0.001407
"2018-06-07 01:11:55.115 +0000",1528333915.115150,-2.378759,-0.076019,0.443844,-0.688975,0.075946,0.720791,0.000000,0.000000,0.000000,-1,0.488789,0.757256,-1.015561,-0.030934,0.093442,-0.023968
"2018-06-07 01:11:55.125 +0000",1528333915.125224,-2.372485,-0.073032,0.454349,-0.693639,0.072968,0.716614,0.000000,0.000000,0.000000,-1,0.511549,0.468266,-0.934705,0.065938,0.055557,-0.054916
"2018-06-07 01:11:55.135 +0000",1528333915.135299,-2.368311,-0.070020,0.464820,-0.696773,0.069963,0.713867,0.000000,0.000000,0.000000,-1,0.503562,0.330080,-0.971661,0.097423,-0.056169,-0.061370
"2018-06-07 01:11:55.145 +0000",1528333915.145373,-2.362908,-0.065677,0.475296,-0.700827,0.065630,0.710301,0.000000,0.000000,0.000000,-1,0.375957,0.524423,-1.065460,0.088645,-0.194490,-0.001286
"2018-06-07 01:11:55.155 +0000",1528333915.155447,-2.356136,-0.059698,0.484871,-0.705886,0.059663,0.705804,0.000000,0.000000,0.000000,-1,0.211154,0.631657,-1.091662,0.072097,-0.269654,0.038916
"2018-06-07 01:11:55.166 +0000",1528333915.165521,-2.348248,-0.052878,0.493626,-0.711705,0.052854,0.700483,0.000000,0.000000,0.000000,-1,0.122820,0.781826,-1.096401,0.020665,-0.270185,0.016680
"2018-06-07 01:11:55.176 +0000",1528333915.175595,-2.340992,-0.045895,0.501628,-0.717017,0.045879,0.695540,0.000000,0.000000,0.000000,-1,0.072019,0.598052,-1.023675,-0.068155,-0.244792,-0.006102
"2018-06-07 01:11:55.186 +0000",1528333915.185669,-2.338180,-0.040005,0.508313,-0.719151,0.039994,0.693697,0.000000,0.000000,0.000000,-1,0.070944,0.139455,-0.827088,-0.019954,-0.195039,-0.077944
"2018-06-07 01:11:55.196 +0000",1528333915.195743,-2.339108,-0.035515,0.512972,-0.718629,0.035508,0.694482,0.000000,0.000000,0.000000,-1,0.004236,-0.174623,-0.581526,0.041582,-0.118683,-0.064797
"2018-06-07 01:11:55.206 +0000",1528333915.205817,-2.341727,-0.032022,0.516007,-0.716893,0.032017,0.696444,0.000000,0.000000,0.000000,-1,-0.030472,-0.287349,-0.424731,0.023884,-0.082218,-0.040850
"2018-06-07 01:11:55.216 +0000",1528333915.215891,-2.344501,-0.029097,0.518260,-0.715022,0.029093,0.698492,0.000000,0.000000,0.000000,-1,-0.038409,-0.255838,-0.352553,0.009456,-0.042323,-0.025411
"2018-06-07 01:11:55.226 +0000",1528333915.225966,-2.345693,-0.026770,0.520725,-0.714235,0.026767,0.699389,0.000000,0.000000,0.000000,-1,0.029522,-0.098773,-0.327511,-0.029035,-0.017780,-0.033801
"2018-06-07 01:11:55.236 +0000",1528333915.236040,-2.345699,-0.025063,0.523261,-0.714263,0.025061,0.699425,0.000000,0.000000,0.000000,-1,0.068038,0.046126,-0.300287,-0.045625,0.010248,-0.034355
"2018-06-07 01:11:55.246 +0000",1528333915.246114,-2.342730,-0.023412,0.526537,-0.716365,0.023410,0.697329,0.000000,0.000000,0.000000,-1,0.139588,0.358323,-0.355476,-0.112615,-0.017291,-0.009402
"2018-06-07 01:11:55.256 +0000",1528333915.256188,-2.338577,-0.022044,0.530419,-0.719277,0.022043,0.694370,0.000000,0.000000,0.000000,-1,0.186908,0.388140,-0.366254,-0.099006,-0.059762,-0.022128
"2018-06-07 01:11:55.266 +0000",1528333915.266262,-2.335944,-0.020478,0.534110,-0.721127,0.020477,0.692496,0.000000,0.000000,0.000000,-1,0.141950,0.200311,-0.369925,-0.048252,-0.079620,-0.015037
"2018-06-07 01:11:55.276 +0000",1528333915.276336,-2.335075,-0.018017,0.537816,-0.721762,0.018016,0.691902,0.000000,0.000000,0.000000,-1,0.081869,0.050129,-0.460578,-0.018899,-0.068126,-0.023521
"2018-06-07 01:11:55.286 +0000",1528333915.286410,-2.334409,-0.014265,0.542376,-0.722267,0.014264,0.691463,0.000000,0.000000,0.000000,-1,0.069420,0.076014,-0.620745,0.004494,-0.057569,-0.031383
"2018-06-07 01:11:55.296 +0000",1528333915.296484,-2.331688,-0.010091,0.547715,-0.724182,0.010091,0.689531,0.000000,0.000000,0.000000,-1,0.088645,0.224517,-0.680594,0.030991,-0.054036,-0.028978
"2018-06-07 01:11:55.307 +0000",1528333915.306558,-2.327935,-0.005957,0.552636,-0.726789,0.005957,0.686830,0.000000,0.000000,0.000000,-1,0.059581,0.422851,-0.613260,0.016279,-0.048254,-0.002108
"2018-06-07 01:11:55.317 +0000",1528333915.316632,-2.322607,-0.002149,0.556603,-0.730450,0.002149,0.682959,0.000000,0.000000,0.000000,-1,0.025192,0.543148,-0.526780,-0.027012,-0.010389,0.019251
"2018-06-07 01:11:55.327 +0000",1528333915.326707,-2.310073,0.000564,0.560264,-0.738954,-0.000564,0.673752,0.000000,0.000000,0.000000,-1,0.036406,0.586928,-0.487955,-0.058730,0.014847,-0.021851
"2018-06-07 01:11:55.337 +0000",1528333915.336782,-2.297341,0.007623,0.563762,-0.747451,-0.007622,0.664270,0.000000,0.000000,0.000000,-1,0.043542,0.732909,-0.477866,-0.080308,0.020089,-0.021432
"2018-06-07 01:11:55.347 +0000",1528333915.346855,-2.289013,0.016138,0.567318,-0.752881,-0.016137,0.657955,0.000000,0.000000,0.000000,-1,0.030931,0.850392,-0.491478,-0.086429,0.003335,-0.016354
"2018-06-07 01:11:55.357 +0000",1528333915.356929,-2.282686,0.022530,0.570394,-0.756935,-0.022528,0.653098,0.000000,0.000000,0.000000,-1,-0.018678,0.785320,-0.451755,-0.052056,-0.041651,-0.011863
"2018-06-07 01:11:55.367 +0000",1528333915.367003,-2.278657,0.027721,0.572431,-0.759461,-0.027718,0.649958,0.000000,0.000000,0.000000,-1,-0.115610,0.617938,-0.391784,-0.028930,-0.070289,-0.002528
"2018-06-07 01:11:55.377 +0000",1528333915.377077,-2.277099,0.032343,0.573697,-0.760367,-0.032338,0.648685,0.000000,0.000000,0.000000,-1,-0.143298,0.496837,-0.327534,-0.035669,-0.071224,-0.018115
"2018-06-07 01:11:55.387 +0000",1528333915.387151,-2.276138,0.035751,0.574640,-0.760902,-0.035744,0.647878,0.000000,0.000000,0.000000,-1,-0.112374,0.463652,-0.247028,-0.040901,-0.074242,-0.040731
"2018-06-07 01:11:55.397 +0000",1528333915.397225,-2.274246,0.036116,0.575445,-0.762116,-0.036109,0.646429,0.000000,0.000000,0.000000,-1,-0.056110,0.430611,-0.183790,-0.013900,-0.056848,-0.044180
"2018-06-07 01:11:55.407 +0000",1528333915.407299,-2.270018,0.034382,0.576719,-0.764889,-0.034375,0.643241,0.000000,0.000000,0.000000,-1,0.054107,0.297982,-0.158613,0.010342,-0.031985,-0.076651
"2018-06-07 01:11:55.417 +0000",1528333915.417373,-2.265960,0.032692,0.578159,-0.767537,-0.032686,0.640167,0.000000,0.000000,0.000000,-1,0.053295,0.163014,-0.172987,0.007665,0.002764,-0.054917
"2018-06-07 01:11:55.427 +0000",1528333915.427448,-2.262751,0.033197,0.579697,-0.769574,-0.033191,0.637691,0.000000,0.000000,0.000000,-1,-0.001641,0.072098,-0.257026,-0.002704,0.039615,-0.015376
"2018-06-07 01:11:55.438 +0000",1528333915.437522,-2.260791,0.037508,0.581568,-0.770705,-0.037499,0.636085,0.000000,0.000000,0.000000,-1,-0.038654,0.098791,-0.364428,0.008575,0.058144,0.008691
"2018-06-07 01:11:55.448 +0000",1528333915.447596,-2.258969,0.044273,0.584177,-0.771650,-0.044258,0.634503,0.000000,0.000000,0.000000,-1,-0.039913,0.218966,-0.488850,0.021497,0.080254,0.013400
"2018-06-07 01:11:55.458 +0000",1528333915.457670,-2.254949,0.051813,0.587484,-0.773914,-0.051790,0.631167,0.000000,0.000000,0.000000,-1,-0.044441,0.366526,-0.601354,0.007678,0.058397,0.024503
"2018-06-07 01:11:55.468 +0000",1528333915.467744,-2.249234,0.059851,0.591189,-0.777159,-0.059816,0.626452,0.000000,0.000000,0.000000,-1,-0.049263,0.443630,-0.666733,0.000456,0.000627,0.025434
"2018-06-07 01:11:55.478 +0000",1528333915.477818,-2.243679,0.066775,0.594762,-0.780284,-0.066726,0.621853,0.000000,0.000000,0.000000,-1,-0.065351,0.522484,-0.633121,-0.016530,-0.083161,0.020420
"2018-06-07 01:11:55.488 +0000",1528333915.487892,-2.237470,0.071207,0.597495,-0.783890,-0.071147,0.616807,0.000000,0.000000,0.000000,-1,-0.040414,0.505358,-0.458974,-0.013000,-0.124364,0.000900
"2018-06-07 01:11:55.498 +0000",1528333915.497966,-2.233231,0.071392,0.599036,-0.786487,-0.071331,0.613471,0.000000,0.000000,0.000000,-1,0.012216,0.358340,-0.182006,0.012835,-0.098667,-0.059455
"2018-06-07 01:11:55.508 +0000",1528333915.508040,-2.231148,0.068710,0.599577,-0.787911,-0.068656,0.611946,0.000000,0.000000,0.000000,-1,0.003839,0.256711,-0.035994,-0.036902,-0.096414,-0.080940
"2018-06-07 01:11:55.518 +0000",1528333915.518114,-2.230891,0.065651,0.598875,-0.788231,-0.065603,0.611870,0.000000,0.000000,0.000000,-1,-0.096622,0.137440,0.067151,-0.070152,-0.108499,-0.065590
"2018-06-07 01:11:55.528 +0000",1528333915.528189,-2.231586,0.062724,0.596616,-0.787954,-0.062683,0.612532,0.000000,0.000000,0.000000,-1,-0.246223,0.082958,0.132949,-0.065943,-0.082047,-0.029906
"2018-06-07 01:11:55.538 +0000",1528333915.538263,-2.231807,0.060762,0.593054,-0.787914,-0.060725,0.612781,0.000000,0.000000,0.000000,-1,-0.285000,0.106487,0.255730,-0.053227,-0.117315,-0.003070
"2018-06-07 01:11:55.548 +0000",1528333915.548337,-2.229625,0.058611,0.588554,-0.789350,-0.058577,0.611139,0.000000,0.000000,0.000000,-1,-0.200042,0.360327,0.513353,-0.015017,-0.171052,-0.010949
"2018-06-07 01:11:55.558 +0000",1528333915.558411,-2.223583,0.055416,0.583231,-0.793173,-0.055388,0.606469,0.000000,0.000000,0.000000,-1,-0.091176,0.703063,0.792693,0.029059,-0.149217,-0.002038
"2018-06-07 01:11:55.568 +0000",1528333915.568485,-2.215098,0.051444,0.576258,-0.798460,-0.051422,0.599845,0.000000,0.000000,0.000000,-1,-0.169697,0.842424,1.015936,0.022596,-0.084763,0.043496
"2018-06-07 01:11:55.579 +0000",1528333915.578559,-2.207395,0.044297,0.566870,-0.803333,-0.044282,0.593880,0.000000,0.000000,0.000000,-1,-0.371184,0.631605,1.155619,-0.014020,-0.021712,0.067329
"2018-06-07 01:11:55.589 +0000",1528333915.588633,-2.203657,0.037002,0.556277,-0.805786,-0.036993,0.591048,0.000000,0.000000,0.000000,-1,-0.403821,0.207514,1.217923,-0.076492,-0.027155,-0.022704
"2018-06-07 01:11:55.599 +0000",1528333915.598707,-2.205383,0.028080,0.546794,-0.804998,-0.028077,0.592611,0.000000,0.000000,0.000000,-1,-0.168568,-0.335522,1.287872,-0.135340,-0.078964,-0.223653
"2018-06-07 01:11:55.609 +0000",1528333915.608781,-2.212178,0.017816,0.539266,-0.801142,-0.017815,0.598207,0.000000,0.000000,0.000000,-1,0.048600,-0.796883,1.240856,-0.194204,-0.113441,-0.299074
"2018-06-07 01:11:55.619 +0000",1528333915.618855,-2.222292,0.008257,0.532539,-0.795150,-0.008257,0.606355,0.000000,0.000000,0.000000,-1,0.020213,-1.101743,1.145377,-0.166993,-0.042738,-0.213426
"2018-06-07 01:11:55.629 +0000",1528333915.628930,-2.235728,-0.000508,0.524779,-0.786958,0.000508,0.617005,0.000000,0.000000,0.000000,-1,-0.113102,-1.422786,1.174867,-0.062911,-0.006169,-0.147614
"2018-06-07 01:11:55.639 +0000",1528333915.639004,-2.253288,-0.009409,0.514930,-0.775969,0.009409,0.630700,0.000000,0.000000,0.000000,-1,-0.241165,-1.853123,1.354617,0.001341,-0.038797,-0.161889
"2018-06-07 01:11:55.649 +0000",1528333915.649078,-2.276519,-0.020046,0.502482,-0.760989,0.020045,0.648453,0.000000,0.000000,0.000000,-1,-0.281074,-2.434301,1.699375,-0.009961,-0.138758,-0.204377
"2018-06-07 01:11:55.659 +0000",1528333915.659153,-2.302127,-0.032913,0.487935,-0.743883,0.032907,0.667498,0.000000,0.000000,0.000000,-1,-0.231627,-2.480298,1.968039,-0.041426,-0.135797,-0.150713
"2018-06-07 01:11:55.669 +0000",1528333915.669226,-2.324630,-0.045279,0.471640,-0.728322,0.045263,0.683736,0.000000,0.000000,0.000000,-1,-0.426463,-2.062658,1.984759,-0.075541,-0.013327,0.151591
"2018-06-07 01:11:55.679 +0000",1528333915.679300,-2.345042,-0.053305,0.452975,-0.713932,0.053280,0.698183,0.000000,0.000000,0.000000,-1,-0.930445,-1.951358,1.810907,-0.186260,-0.050854,0.318602
"2018-06-07 01:11:55.689 +0000",1528333915.689374,-2.361539,-0.060226,0.433425,-0.702042,0.060190,0.709586,0.000000,0.000000,0.000000,-1,-0.823249,-1.313465,1.860921,-0.084137,0.065940,0.115289
"2018-06-07 01:11:55.699 +0000",1528333915.699448,-2.369500,-0.066741,0.414855,-0.696082,0.066691,0.714856,0.000000,0.000000,0.000000,-1,-0.854335,-0.542286,1.710494,-0.009606,0.196843,-0.000241
"2018-06-07 01:11:55.710 +0000",1528333915.709522,-2.374935,-0.071429,0.397609,-0.691962,0.071368,0.718396,0.000000,0.000000,0.000000,-1,-0.823546,-0.397565,1.512926,-0.082879,0.044629,0.045520
"2018-06-07 01:11:55.720 +0000",1528333915.719596,-2.377145,-0.075660,0.382844,-0.690157,0.075588,0.719699,0.000000,0.000000,0.000000,-1,-0.691976,0.015403,1.289016,0.055132,0.076572,-0.032946
"2018-06-07 01:11:55.730 +0000",1528333915.729670,-2.374930,-0.078617,0.369684,-0.691592,0.078536,0.718004,0.000000,0.000000,0.000000,-1,-0.687706,0.402641,1.095441,0.104693,0.047715,0.077788
"2018-06-07 01:11:55.740 +0000",1528333915.739745,-2.370558,-0.080095,0.357731,-0.694643,0.080009,0.714889,0.000000,0.000000,0.000000,-1,-0.730543,0.525134,0.914112,0.107393,-0.017616,0.097275
"2018-06-07 01:11:55.750 +0000",1528333915.749819,-2.366868,-0.079688,0.346897,-0.697298,0.079603,0.712345,0.000000,0.000000,0.000000,-1,-0.788439,0.414019,0.670825,0.071886,-0.057966,0.085400
"2018-06-07 01:11:55.760 +0000",1528333915.759893,-2.365621,-0.077028,0.338191,-0.698332,0.076952,0.711623,0.000000,0.000000,0.000000,-1,-0.787775,0.092618,0.350422,0.014326,-0.095919,-0.021499
"2018-06-07 01:11:55.770 +0000",1528333915.769967,-2.368713,-0.073086,0.331680,-0.696335,0.073021,0.713991,0.000000,0.000000,0.000000,-1,-0.693392,-0.351980,0.150994,0.019974,-0.107643,-0.182787
"2018-06-07 01:11:55.780 +0000",1528333915.780041,-2.374453,-0.070073,0.327818,-0.692375,0.070016,0.718131,0.000000,0.000000,0.000000,-1,-0.399312,-0.640558,0.051597,0.049232,-0.058328,-0.307029
"2018-06-07 01:11:55.790 +0000",1528333915.790115,-2.382177,-0.068934,0.325764,-0.686862,0.068879,0.723516,0.000000,0.000000,0.000000,-1,-0.158809,-0.781588,0.072149,0.102831,0.018584,-0.284444
"2018-06-07 01:11:55.800 +0000",1528333915.800189,-2.389882,-0.069476,0.325346,-0.681242,0.069421,0.728759,0.000000,0.000000,0.000000,-1,0.055461,-0.737058,0.066410,0.108884,0.053657,-0.153151
"2018-06-07 01:11:55.810 +0000",1528333915.810263,-2.395992,-0.070887,0.325548,-0.676709,0.070827,0.732835,0.000000,0.000000,0.000000,-1,0.124396,-0.566835,0.095790,0.074689,0.011555,-0.001161
"2018-06-07 01:11:55.820 +0000",1528333915.820337,-2.400356,-0.072415,0.325220,-0.673431,0.072351,0.735700,0.000000,0.000000,0.000000,-1,0.080896,-0.406836,0.132927,0.057037,0.010946,0.089540
"2018-06-07 01:11:55.830 +0000",1528333915.830413,-2.404069,-0.073567,0.325108,-0.670638,0.073500,0.738134,0.000000,0.000000,0.000000,-1,0.086544,-0.381342,0.078130,-0.051789,0.031740,0.099345
"2018-06-07 01:11:55.840 +0000",1528333915.840487,-2.407033,-0.074621,0.325644,-0.668395,0.074551,0.740060,0.000000,0.000000,0.000000,-1,0.105892,-0.274509,0.007404,-0.055223,0.094180,0.028342
"2018-06-07 01:11:55.851 +0000",1528333915.850561,-2.409772,-0.074979,0.326707,-0.666348,0.074909,0.741868,0.000000,0.000000,0.000000,-1,0.102225,-0.306079,-0.058294,-0.104298,0.051953,0.012847
"2018-06-07 01:11:55.861 +0000",1528333915.860635,-2.413622,-0.075722,0.328317,-0.663449,0.075649,0.744387,0.000000,0.000000,0.000000,-1,0.189577,-0.441935,-0.064267,-0.067554,0.026447,-0.055498
"2018-06-07 01:11:55.871 +0000",1528333915.870709,-2.417882,-0.076903,0.330389,-0.660213,0.076827,0.747138,0.000000,0.000000,0.000000,-1,0.229561,-0.420916,-0.076130,-0.026082,-0.025847,-0.067375
"2018-06-07 01:11:55.881 +0000",1528333915.880783,-2.421297,-0.078142,0.332681,-0.657594,0.078063,0.749317,0.000000,0.000000,0.000000,-1,0.245377,-0.338464,-0.094212,-0.008376,-0.059157,-0.029056
"2018-06-07 01:11:55.891 +0000",1528333915.890857,-2.424083,-0.079361,0.335057,-0.655441,0.079277,0.751074,0.000000,0.000000,0.000000,-1,0.246392,-0.276973,-0.097263,-0.017823,-0.066170,-0.010046
"2018-06-07 01:11:55.901 +0000",1528333915.900931,-2.425391,-0.080189,0.337613,-0.654414,0.080103,0.751881,0.000000,0.000000,0.000000,-1,0.225472,-0.119921,-0.127952,-0.030110,-0.067392,0.004146
"2018-06-07 01:11:55.911 +0000",1528333915.911005,-2.425127,-0.081216,0.339390,-0.654559,0.081126,0.751646,0.000000,0.000000,0.000000,-1,0.183780,0.052004,-0.054212,0.010317,-0.053249,0.038317
"2018-06-07 01:11:55.921 +0000",1528333915.921079,-2.424201,-0.081946,0.340999,-0.655215,0.081854,0.750994,0.000000,0.000000,0.000000,-1,0.157664,0.092647,-0.077698,-0.022504,0.049432,0.022184
"2018-06-07 01:11:55.931 +0000",1528333915.931153,-2.421928,-0.083023,0.343005,-0.656861,0.082927,0.749436,0.000000,0.000000,0.000000,-1,0.232125,0.252052,-0.082783,-0.018660,0.079686,0.003402
"2018-06-07 01:11:55.941 +0000",1528333915.941227,-2.416708,-0.084772,0.345567,-0.660668,0.084670,0.745888,0.000000,0.000000,0.000000,-1,0.268837,0.355371,-0.089021,-0.005332,0.074464,0.022774
"2018-06-07 01:11:55.951 +0000",1528333915.951302,-2.410661,-0.084454,0.348261,-0.665185,0.084353,0.741899,0.000000,0.000000,0.000000,-1,0.189550,0.369723,-0.160866,-0.012672,0.042569,0.029738
"2018-06-07 01:11:55.961 +0000",1528333915.961376,-2.407123,-0.082490,0.350266,-0.667915,0.082397,0.739662,0.000000,0.000000,0.000000,-1,0.077326,0.277238,-0.170558,-0.012246,0.001847,-0.004509
"2018-06-07 01:11:55.971 +0000",1528333915.971450,-2.404785,-0.080682,0.351750,-0.669741,0.080594,0.738208,0.000000,0.000000,0.000000,-1,0.088429,0.205631,-0.103027,0.011614,-0.039731,-0.058414
"2018-06-07 01:11:55.982 +0000",1528333915.981524,-2.402982,-0.079355,0.353005,-0.671142,0.079272,0.737078,0.000000,0.000000,0.000000,-1,0.115478,0.167123,-0.064477,-0.002777,-0.041949,-0.038317
"2018-06-07 01:11:55.992 +0000",1528333915.991598,-2.403444,-0.078073,0.353821,-0.670870,0.077994,0.737462,0.000000,0.000000,0.000000,-1,0.059729,0.087843,-0.044143,-0.017668,-0.052725,-0.014699
"2018-06-07 01:11:56.002 +0000",1528333916.001672,-2.403148,-0.079507,0.354044,-0.671012,0.079424,0.737180,0.000000,0.000000,0.000000,-1,0.016391,0.080983,-0.007492,-0.009667,-0.064562,-0.009137
"2018-06-07 01:11:56.012 +0000",1528333916.011746,-2.403109,-0.081972,0.353951,-0.670907,0.081880,0.737007,0.000000,0.000000,0.000000,-1,0.013033,0.003981,0.028868,-0.019645,-0.031831,-0.036079
"2018-06-07 01:11:56.022 +0000",1528333916.021820,-2.403786,-0.084220,0.353810,-0.670282,0.084120,0.737323,0.000000,0.000000,0.000000,-1,0.012013,0.007290,0.024577,-0.031835,0.012682,-0.032321
"2018-06-07 01:11:56.032 +0000",1528333916.031894,-2.403841,-0.085452,0.353695,-0.670172,0.085348,0.737283,0.000000,0.000000,0.000000,-1,0.013069,0.052328,0.018252,-0.010126,0.032602,-0.012582
"2018-06-07 01:11:56.042 +0000",1528333916.041968,-2.403291,-0.085646,0.353501,-0.670566,0.085542,0.736901,0.000000,0.000000,0.000000,-1,0.000354,0.021479,0.036477,0.002139,0.032668,-0.019555
"2018-06-07 01:11:56.052 +0000",1528333916.052043,-2.402658,-0.085015,0.353268,-0.671068,0.084913,0.736516,0.000000,0.000000,0.000000,-1,0.018108,-0.018068,0.054607,-0.007353,0.008959,-0.023336
"2018-06-07 01:11:56.062 +0000",1528333916.062117,-2.402530,-0.084523,0.353023,-0.671190,0.084422,0.736461,0.000000,0.000000,0.000000,-1,0.024333,-0.066419,0.070587,-0.006285,-0.034068,-0.015163
"2018-06-07 01:11:56.072 +0000",1528333916.072191,-2.402768,-0.083730,0.352712,-0.671059,0.083632,0.736670,0.000000,0.000000,0.000000,-1,0.021228,-0.079583,0.066253,-0.006324,-0.081297,-0.011008
"2018-06-07 01:11:56.082 +0000",1528333916.082265,-2.403087,-0.082569,0.352491,-0.670889,0.082475,0.736956,0.000000,0.000000,0.000000,-1,0.014071,-0.050940,0.037311,0.003485,-0.097032,-0.029207
"2018-06-07 01:11:56.092 +0000",1528333916.092339,-2.402438,-0.082561,0.352749,-0.671368,0.082467,0.736520,0.000000,0.000000,0.000000,-1,0.087536,-0.014522,0.040475,0.012600,-0.166589,-0.055277
"2018-06-07 01:11:56.102 +0000",1528333916.102413,-2.401645,-0.084332,0.353355,-0.671852,0.084232,0.735879,0.000000,0.000000,0.000000,-1,0.160817,-0.018844,0.072564,0.021935,-0.203693,-0.065866
"2018-06-07 01:11:56.112 +0000",1528333916.112487,-2.401704,-0.086648,0.353785,-0.671675,0.086540,0.735772,0.000000,0.000000,0.000000,-1,0.145959,-0.039837,0.095126,0.055678,-0.025459,-0.022256
"2018-06-07 01:11:56.123 +0000",1528333916.122561,-2.401995,-0.088468,0.353797,-0.671354,0.088353,0.735850,0.000000,0.000000,0.000000,-1,0.080957,-0.044347,0.080203,-0.028811,0.089901,0.011617
"2018-06-07 01:11:56.133 +0000",1528333916.132635,-2.401703,-0.089351,0.354121,-0.671517,0.089232,0.735596,0.000000,0.000000,0.000000,-1,0.083527,0.016325,0.011532,-0.101082,0.168535,0.020858
"2018-06-07 01:11:56.143 +0000",1528333916.142709,-2.400961,-0.089316,0.355097,-0.672064,0.089197,0.735101,0.000000,0.000000,0.000000,-1,0.089271,0.053954,-0.057213,-0.127298,0.148398,0.018668
"2018-06-07 01:11:56.153 +0000",1528333916.152783,-2.400541,-0.089592,0.356187,-0.672356,0.089472,0.734800,0.000000,0.000000,0.000000,-1,0.096666,0.018850,-0.058408,-0.096886,0.082785,0.005664
"2018-06-07 01:11:56.163 +0000",1528333916.162858,-2.400612,-0.089898,0.357293,-0.672285,0.089777,0.734827,0.000000,0.000000,0.000000,-1,0.092537,-0.030547,-0.061769,-0.079713,0.021948,-0.007730
"2018-06-07 01:11:56.173 +0000",1528333916.172932,-2.401280,-0.090026,0.358383,-0.671786,0.089904,0.735267,0.000000,0.000000,0.000000,-1,0.082165,-0.088716,-0.071595,-0.045102,-0.010040,-0.022804
"2018-06-07 01:11:56.183 +0000",1528333916.183006,-2.402580,-0.090236,0.359352,-0.670818,0.090114,0.736126,0.000000,0.000000,0.000000,-1,0.082057,-0.156872,-0.049205,-0.009190,-0.028361,-0.039577
"2018-06-07 01:11:56.193 +0000",1528333916.193080,-2.404659,-0.090608,0.360087,-0.669263,0.090484,0.737494,0.000000,0.000000,0.000000,-1,0.073513,-0.232758,-0.021439,0.011838,-0.040511,-0.037665
"2018-06-07 01:11:56.203 +0000",1528333916.203154,-2.407389,-0.091086,0.360544,-0.667218,0.090960,0.739286,0.000000,0.000000,0.000000,-1,0.060748,-0.287799,0.006397,0.017591,-0.053118,-0.022825
"2018-06-07 01:11:56.213 +0000",1528333916.213228,-2.410321,-0.091673,0.360622,-0.665012,0.091545,0.741200,0.000000,0.000000,0.000000,-1,0.044721,-0.289090,0.041926,0.008487,-0.060402,-0.011082
"2018-06-07 01:11:56.223 +0000",1528333916.223302,-2.413320,-0.092229,0.360413,-0.662752,0.092098,0.743152,0.000000,0.000000,0.000000,-1,0.022590,-0.297979,0.052707,-0.013487,-0.056438,-0.011326
"2018-06-07 01:11:56.233 +0000",1528333916.233376,-2.415800,-0.093269,0.360303,-0.660843,0.093134,0.744722,0.000000,0.000000,0.000000,-1,0.015420,-0.324260,0.032210,-0.020172,-0.042521,-0.029985
"2018-06-07 01:11:56.243 +0000",1528333916.243450,-2.418389,-0.093512,0.360414,-0.658898,0.093376,0.746413,0.000000,0.000000,0.000000,-1,0.009425,-0.335092,-0.006531,-0.033485,-0.042061,-0.042433
"2018-06-07 01:11:56.254 +0000",1528333916.253524,-2.420757,-0.093262,0.360500,-0.657144,0.093127,0.747989,0.000000,0.000000,0.000000,-1,-0.012698,-0.309927,-0.001029,-0.038489,-0.009387,-0.024814
"2018-06-07 01:11:56.264 +0000",1528333916.263598,-2.422455,-0.092709,0.360335,-0.655906,0.092576,0.749142,0.000000,0.000000,0.000000,-1,-0.012929,-0.250744,0.021732,-0.028420,0.034545,-0.019223
"2018-06-07 01:11:56.274 +0000",1528333916.273673,-2.424305,-0.092282,0.360172,-0.654545,0.092151,0.750383,0.000000,0.000000,0.000000,-1,0.003721,-0.234308,0.040028,-0.064266,0.030942,-0.026049
"2018-06-07 01:11:56.284 +0000",1528333916.283747,-2.427372,-0.091649,0.359629,-0.652279,0.091521,0.752431,0.000000,0.000000,0.000000,-1,-0.036173,-0.373897,0.054772,-0.069172,0.014726,-0.018346
"2018-06-07 01:11:56.294 +0000",1528333916.293821,-2.431777,-0.090438,0.358674,-0.649029,0.090314,0.755381,0.000000,0.000000,0.000000,-1,-0.089720,-0.480574,0.065341,-0.089405,-0.039792,-0.007456
"2018-06-07 01:11:56.304 +0000",1528333916.303895,-2.436219,-0.089062,0.357580,-0.645747,0.088944,0.758350,0.000000,0.000000,0.000000,-1,-0.104348,-0.509130,0.058838,-0.068562,-0.025254,-0.015110
"2018-06-07 01:11:56.314 +0000",1528333916.313969,-2.440068,-0.087822,0.356896,-0.642894,0.087710,0.760914,0.000000,0.000000,0.000000,-1,-0.086200,-0.469379,0.015886,-0.032551,-0.001497,-0.023396
"2018-06-07 01:11:56.324 +0000",1528333916.324043,-2.442125,-0.086916,0.356482,-0.641379,0.086807,0.762295,0.000000,0.000000,0.000000,-1,-0.046540,-0.293673,0.027063,0.035865,-0.001006,-0.034451
"2018-06-07 01:11:56.334 +0000",1528333916.334117,-2.443126,-0.086703,0.356069,-0.640628,0.086595,0.762951,0.000000,0.000000,0.000000,-1,-0.044560,-0.194882,0.030572,0.035586,0.007048,-0.033611
"2018-06-07 01:11:56.344 +0000",1528333916.344191,-2.444016,-0.087188,0.355568,-0.639921,0.087077,0.763489,0.000000,0.000000,0.000000,-1,-0.059255,-0.187230,0.028477,-0.017321,-0.000529,-0.025955
"2018-06-07 01:11:56.354 +0000",1528333916.354265,-2.444703,-0.087257,0.355087,-0.639393,0.087146,0.763923,0.000000,0.000000,0.000000,-1,-0.084265,-0.213551,0.005869,-0.032772,0.012280,-0.016532
"2018-06-07 01:11:56.364 +0000",1528333916.364339,-2.445557,-0.086695,0.354760,-0.638771,0.086586,0.764507,0.000000,0.000000,0.000000,-1,-0.094498,-0.211236,-0.029597,-0.035393,0.029427,-0.011058
"2018-06-07 01:11:56.374 +0000",1528333916.374413,-2.446095,-0.084929,0.354672,-0.638456,0.084827,0.764966,0.000000,0.000000,0.000000,-1,-0.098440,-0.189138,-0.066096,-0.026735,0.035900,-0.002805
"2018-06-07 01:11:56.384 +0000",1528333916.384488,-2.446847,-0.083264,0.354821,-0.637970,0.083168,0.765553,0.000000,0.000000,0.000000,-1,-0.095106,-0.190128,-0.089770,-0.011902,0.013924,-0.002141
"2018-06-07 01:11:56.395 +0000",1528333916.394562,-2.448318,-0.081909,0.355101,-0.636916,0.081817,0.766577,0.000000,0.000000,0.000000,-1,-0.094876,-0.240525,-0.113582,-0.004579,-0.022186,0.000452
"2018-06-07 01:11:56.405 +0000",1528333916.404636,-2.450540,-0.080651,0.355637,-0.635275,0.080563,0.768069,0.000000,0.000000,0.000000,-1,-0.066401,-0.214023,-0.131856,-0.000330,-0.049389,-0.011080
"2018-06-07 01:11:56.415 +0000",1528333916.414710,-2.452018,-0.079571,0.356278,-0.634194,0.079487,0.769074,0.000000,0.000000,0.000000,-1,-0.067501,-0.138267,-0.134860,-0.018760,-0.043095,-0.005600
"2018-06-07 01:11:56.425 +0000",1528333916.424784,-2.452637,-0.078121,0.357015,-0.633791,0.078042,0.769554,0.000000,0.000000,0.000000,-1,-0.076789,-0.120630,-0.158451,-0.053694,-0.017983,-0.011116
"2018-06-07 01:11:56.435 +0000",1528333916.434858,-2.453525,-0.076880,0.357940,-0.633168,0.076805,0.770191,0.000000,0.000000,0.000000,-1,-0.062037,-0.168890,-0.158625,-0.092158,-0.007713,-0.021412
"2018-06-07 01:11:56.445 +0000",1528333916.444932,-2.455044,-0.075988,0.358398,-0.632041,0.075915,0.771205,0.000000,0.000000,0.000000,-1,-0.105392,-0.236168,-0.112469,-0.052682,0.027799,0.001119
"2018-06-07 01:11:56.455 +0000",1528333916.455006,-2.457588,-0.074795,0.358016,-0.630133,0.074725,0.772880,0.000000,0.000000,0.000000,-1,-0.183331,-0.305697,-0.075921,-0.015161,0.044736,0.010339
"2018-06-07 01:11:56.465 +0000",1528333916.465080,-2.460182,-0.073297,0.357479,-0.628196,0.073232,0.774597,0.000000,0.000000,0.000000,-1,-0.166588,-0.267242,-0.072621,-0.049615,0.045024,-0.009750
"2018-06-07 01:11:56.475 +0000",1528333916.475154,-2.462495,-0.071701,0.356895,-0.626476,0.071640,0.776138,0.000000,0.000000,0.000000,-1,-0.145959,-0.252014,-0.025295,-0.078877,0.047684,-0.023498
"2018-06-07 01:11:56.485 +0000",1528333916.485228,-2.465513,-0.069900,0.355794,-0.624210,0.069843,0.778124,0.000000,0.000000,0.000000,-1,-0.175588,-0.349969,0.015362,-0.045224,0.033261,-0.023577
"2018-06-07 01:11:56.495 +0000",1528333916.495302,-2.469908,-0.068104,0.354172,-0.620860,0.068051,0.780957,0.000000,0.000000,0.000000,-1,-0.218785,-0.510519,0.052642,-0.021947,0.007419,-0.022031
"2018-06-07 01:11:56.505 +0000",1528333916.505377,-2.475380,-0.066419,0.352356,-0.616648,0.066370,0.784431,0.000000,0.000000,0.000000,-1,-0.244858,-0.634603,0.043735,-0.042516,-0.038813,-0.016151
"2018-06-07 01:11:56.515 +0000",1528333916.515451,-2.480909,-0.064847,0.350353,-0.612365,0.064801,0.787911,0.000000,0.000000,0.000000,-1,-0.248261,-0.664405,0.080228,-0.024781,-0.059537,0.001213
"2018-06-07 01:11:56.526 +0000",1528333916.525525,-2.487362,-0.064100,0.348130,-0.607297,0.064056,0.791883,0.000000,0.000000,0.000000,-1,-0.226440,-0.727078,0.118719,-0.007769,-0.041473,-0.001737
"2018-06-07 01:11:56.536 +0000",1528333916.535599,-2.495362,-0.063915,0.345297,-0.600950,0.063871,0.796726,0.000000,0.000000,0.000000,-1,-0.243719,-0.860284,0.196894,-0.038500,-0.058302,-0.005008
"2018-06-07 01:11:56.546 +0000",1528333916.545673,-2.505640,-0.063648,0.341306,-0.592740,0.063605,0.802874,0.000000,0.000000,0.000000,-1,-0.334530,-1.173826,0.298376,-0.122089,-0.052481,-0.022768
"2018-06-07 01:11:56.556 +0000",1528333916.555747,-2.519439,-0.062048,0.336332,-0.581663,0.062008,0.811058,0.000000,0.000000,0.000000,-1,-0.440375,-1.370593,0.291592,-0.174334,0.000965,-0.018074
"2018-06-07 01:11:56.566 +0000",1528333916.565821,-2.534081,-0.058970,0.331994,-0.569831,0.058935,0.819640,0.000000,0.000000,0.000000,-1,-0.510473,-1.426081,0.125942,-0.175866,0.066751,-0.013930
"2018-06-07 01:11:56.576 +0000",1528333916.575895,-2.546758,-0.054802,0.329586,-0.559528,0.054774,0.826994,0.000000,0.000000,0.000000,-1,-0.462948,-1.158337,-0.077761,-0.163845,0.101537,-0.015684
"2018-06-07 01:11:56.586 +0000",1528333916.585969,-2.556187,-0.050831,0.328082,-0.551821,0.050809,0.832408,0.000000,0.000000,0.000000,-1,-0.385332,-0.858334,-0.100730,-0.041730,0.059543,-0.015529
"2018-06-07 01:11:56.596 +0000",1528333916.596043,-2.563737,-0.047351,0.326979,-0.545614,0.047334,0.836693,0.000000,0.000000,0.000000,-1,-0.333993,-0.708886,-0.102564,0.042913,0.000854,-0.039132
"2018-06-07 01:11:56.606 +0000",1528333916.606117,-2.570164,-0.044122,0.326795,-0.540305,0.044108,0.840307,0.000000,0.000000,0.000000,-1,-0.264189,-0.616169,-0.176674,0.022651,-0.026469,-0.033453
"2018-06-07 01:11:56.616 +0000",1528333916.616192,-2.576536,-0.041303,0.326961,-0.535004,0.041291,0.843834,0.000000,0.000000,0.000000,-1,-0.216032,-0.656760,-0.151087,-0.044524,-0.071672,-0.030739
"2018-06-07 01:11:56.626 +0000",1528333916.626266,-2.584594,-0.038758,0.326505,-0.528241,0.038749,0.848205,0.000000,0.000000,0.000000,-1,-0.265984,-0.794511,-0.057792,0.013257,-0.045524,-0.028304
"2018-06-07 01:11:56.636 +0000",1528333916.636340,-2.588168,-0.035647,0.324604,-0.525268,0.035639,0.850185,0.000000,0.000000,0.000000,-1,-0.373919,-0.217522,-0.024673,-0.033250,-0.019266,0.048542
"2018-06-07 01:11:56.646 +0000",1528333916.646414,-2.588606,-0.032079,0.323694,-0.524959,0.032074,0.850518,0.000000,0.000000,0.000000,-1,-0.338519,-0.042384,-0.142565,-0.015980,0.063828,-0.055932
"2018-06-07 01:11:56.656 +0000",1528333916.656488,-2.590082,-0.028103,0.324597,-0.523765,0.028100,0.851395,0.000000,0.000000,0.000000,-1,-0.265421,-0.200526,-0.341111,-0.091881,0.057777,-0.062592
"2018-06-07 01:11:56.667 +0000",1528333916.666562,-2.591607,-0.024459,0.327080,-0.522517,0.024456,0.852274,0.000000,0.000000,0.000000,-1,-0.155859,-0.109979,-0.394881,-0.049001,0.062656,-0.023401
"2018-06-07 01:11:56.677 +0000",1528333916.676636,-2.591876,-0.021614,0.328863,-0.522322,0.021612,0.852470,0.000000,0.000000,0.000000,-1,-0.155957,-0.024936,-0.255875,0.148833,0.040170,0.027779
"2018-06-07 01:11:56.687 +0000",1528333916.686710,-2.593683,-0.018642,0.329263,-0.520812,0.018641,0.853464,0.000000,0.000000,0.000000,-1,-0.260310,-0.250587,-0.179922,0.120757,-0.036463,0.023718
"2018-06-07 01:11:56.697 +0000",1528333916.696784,-2.596898,-0.015703,0.328590,-0.518091,0.015702,0.855177,0.000000,0.000000,0.000000,-1,-0.284037,-0.335563,-0.088685,0.068995,-0.011063,-0.034285
"2018-06-07 01:11:56.707 +0000",1528333916.706858,-2.601232,-0.012644,0.328273,-0.514402,0.012644,0.857452,0.000000,0.000000,0.000000,-1,-0.270841,-0.476890,-0.148287,0.094450,0.011297,-0.057647
"2018-06-07 01:11:56.717 +0000",1528333916.716932,-2.607188,-0.009661,0.328807,-0.509303,0.009660,0.860529,0.000000,0.000000,0.000000,-1,-0.213611,-0.612645,-0.198292,-0.013311,-0.058900,-0.050196
"2018-06-07 01:11:56.727 +0000",1528333916.727006,-2.612266,-0.006989,0.329795,-0.504938,0.006988,0.863123,0.000000,0.000000,0.000000,-1,-0.170475,-0.456521,-0.226979,0.060907,-0.070511,-0.020655
"2018-06-07 01:11:56.737 +0000",1528333916.737081,-2.615029,-0.004761,0.330918,-0.502557,0.004761,0.864526,0.000000,0.000000,0.000000,-1,-0.196672,-0.357710,-0.247069,0.081552,-0.083313,0.025763
"2018-06-07 01:11:56.747 +0000",1528333916.747155,-2.617122,-0.002375,0.332759,-0.500752,0.002375,0.865583,0.000000,0.000000,0.000000,-1,-0.156281,-0.237618,-0.324259,-0.020916,-0.079996,0.020602
"2018-06-07 01:11:56.757 +0000",1528333916.757229,-2.619483,-0.000168,0.335156,-0.498708,0.000168,0.866765,0.000000,0.000000,0.000000,-1,-0.112038,-0.088051,-0.359421,0.023381,-0.026336,0.011378
"2018-06-07 01:11:56.767 +0000",1528333916.767303,-2.619847,0.002902,0.338302,-0.498390,-0.002902,0.866943,0.000000,0.000000,0.000000,-1,-0.089560,0.091271,-0.436398,0.007621,-0.000821,0.018250
"2018-06-07 01:11:56.777 +0000",1528333916.777377,-2.618499,0.005940,0.342111,-0.499552,-0.005940,0.866259,0.000000,0.000000,0.000000,-1,-0.077599,0.173902,-0.499648,-0.078985,0.013218,-0.001727
"2018-06-07 01:11:56.787 +0000",1528333916.787451,-2.617166,0.008972,0.346560,-0.500694,-0.008972,0.865573,0.000000,0.000000,0.000000,-1,-0.071839,0.177490,-0.566340,-0.113808,0.076477,-0.015612
"2018-06-07 01:11:56.798 +0000",1528333916.797525,-2.615043,0.013281,0.351898,-0.502507,-0.013281,0.864466,0.000000,0.000000,0.000000,-1,-0.070877,0.164838,-0.690079,-0.128581,0.170691,0.004308
"2018-06-07 01:11:56.808 +0000",1528333916.807599,-2.614428,0.018363,0.358039,-0.502998,-0.018362,0.864088,0.000000,0.000000,0.000000,-1,-0.106892,0.076179,-0.776306,-0.119103,0.149817,0.003588
"2018-06-07 01:11:56.818 +0000",1528333916.817673,-2.615515,0.024147,0.364216,-0.501997,-0.024145,0.864528,0.000000,0.000000,0.000000,-1,-0.159132,-0.056714,-0.795934,-0.077669,0.128072,-0.010081
"2018-06-07 01:11:56.828 +0000",1528333916.827747,-2.617095,0.030306,0.370195,-0.500547,-0.030302,0.865175,0.000000,0.000000,0.000000,-1,-0.204158,-0.166597,-0.800453,-0.022265,0.107267,-0.031587
"2018-06-07 01:11:56.838 +0000",1528333916.837821,-2.619606,0.036006,0.375942,-0.498278,-0.035998,0.866265,0.000000,0.000000,0.000000,-1,-0.210621,-0.205145,-0.774735,0.025026,-0.008924,-0.042352
"2018-06-07 01:11:56.848 +0000",1528333916.847895,-2.622596,0.041080,0.381603,-0.495589,-0.041068,0.867582,0.000000,0.000000,0.000000,-1,-0.181040,-0.312607,-0.783721,-0.006014,-0.132119,-0.044462
"2018-06-07 01:11:56.858 +0000",1528333916.857970,-2.626455,0.045572,0.387314,-0.492141,-0.045556,0.869318,0.000000,0.000000,0.000000,-1,-0.124689,-0.453237,-0.718644,0.024581,-0.070319,-0.023813
"2018-06-07 01:11:56.868 +0000",1528333916.868043,-2.631183,0.049390,0.392847,-0.487937,-0.049370,0.871477,0.000000,0.000000,0.000000,-1,-0.123697,-0.495003,-0.705861,0.110602,-0.018913,0.005568
"2018-06-07 01:11:56.878 +0000",1528333916.878118,-2.634531,0.052683,0.398426,-0.484935,-0.052659,0.872959,0.000000,0.000000,0.000000,-1,-0.122860,-0.351235,-0.695763,0.062969,-0.046172,0.028301
"2018-06-07 01:11:56.888 +0000",1528333916.888192,-2.637245,0.055696,0.403623,-0.482485,-0.055667,0.874130,0.000000,0.000000,0.000000,-1,-0.087725,-0.293240,-0.627910,0.047182,-0.064557,-0.011977
"2018-06-07 01:11:56.898 +0000",1528333916.898266,-2.639820,0.058035,0.408387,-0.480169,-0.058003,0.875252,0.000000,0.000000,0.000000,-1,-0.040994,-0.286811,-0.559157,0.099874,-0.073818,-0.039971
"2018-06-07 01:11:56.908 +0000",1528333916.908340,-2.643499,0.060875,0.412702,-0.476866,-0.060837,0.876865,0.000000,0.000000,0.000000,-1,-0.042463,-0.357338,-0.495895,0.105482,-0.177932,-0.029102
"2018-06-07 01:11:56.918 +0000",1528333916.918414,-2.648302,0.063459,0.416076,-0.472572,-0.063416,0.879003,0.000000,0.000000,0.000000,-1,-0.077827,-0.494013,-0.387572,0.094811,-0.269576,-0.028006
"2018-06-07 01:11:56.928 +0000",1528333916.928488,-2.655521,0.065877,0.417920,-0.466141,-0.065829,0.882254,0.000000,0.000000,0.000000,-1,-0.145901,-0.800006,-0.238791,0.073471,-0.238401,-0.064597
"2018-06-07 01:11:56.939 +0000",1528333916.938561,-2.667328,0.068550,0.418481,-0.455611,-0.068496,0.887536,0.000000,0.000000,0.000000,-1,-0.225757,-1.297792,-0.173367,0.082579,-0.064057,-0.132425
"2018-06-07 01:11:56.949 +0000",1528333916.948636,-2.683852,0.071826,0.419292,-0.440781,-0.071765,0.894738,0.000000,0.000000,0.000000,-1,-0.264775,-1.743338,-0.234809,0.065201,0.013919,-0.172036
"2018-06-07 01:11:56.959 +0000",1528333916.958710,-2.704949,0.075443,0.419959,-0.421696,-0.075371,0.903596,0.000000,0.000000,0.000000,-1,-0.312855,-2.207941,-0.208084,0.042790,-0.006873,-0.177217
"2018-06-07 01:11:56.969 +0000",1528333916.968784,-2.730455,0.079864,0.420381,-0.398377,-0.079780,0.913742,0.000000,0.000000,0.000000,-1,-0.411068,-2.634087,-0.223082,0.013550,0.008277,-0.155121
"2018-06-07 01:11:56.979 +0000",1528333916.978858,-2.759095,0.085268,0.420694,-0.371882,-0.085165,0.924361,0.000000,0.000000,0.000000,-1,-0.498928,-2.886749,-0.239751,-0.013937,0.056112,-0.110640
"2018-06-07 01:11:56.989 +0000",1528333916.988933,-2.789914,0.091286,0.421218,-0.343038,-0.091160,0.934883,0.000000,0.000000,0.000000,-1,-0.554096,-3.130461,-0.274754,-0.035227,0.098667,-0.045052
"2018-06-07 01:11:56.999 +0000",1528333916.999007,-2.822071,0.098035,0.422221,-0.312603,-0.097878,0.944823,0.000000,0.000000,0.000000,-1,-0.615700,-3.151301,-0.319851,-0.116413,0.106133,-0.015990
"2018-06-07 01:11:57.009 +0000",1528333917.009080,-2.851481,0.105662,0.422988,-0.284462,-0.105465,0.952864,0.000000,0.000000,0.000000,-1,-0.728560,-2.817978,-0.299261,0.007820,0.108181,0.045900
"2018-06-07 01:11:57.019 +0000",1528333917.019155,-2.876733,0.113660,0.424147,-0.260083,-0.113415,0.958898,0.000000,0.000000,0.000000,-1,-0.720342,-2.388604,-0.328147,-0.025699,0.052136,0.101176
"2018-06-07 01:11:57.029 +0000",1528333917.029229,-2.898677,0.120585,0.425319,-0.238786,-0.120293,0.963588,0.000000,0.000000,0.000000,-1,-0.605488,-2.126154,-0.271713,-0.054839,0.000740,0.078557
"2018-06-07 01:11:57.039 +0000",1528333917.039303,-2.918638,0.125878,0.426566,-0.219362,-0.125546,0.967528,0.000000,0.000000,0.000000,-1,-0.442054,-1.904064,-0.244551,-0.044051,0.033444,0.060961
"2018-06-07 01:11:57.049 +0000",1528333917.049376,-2.935758,0.129744,0.428869,-0.202666,-0.129381,0.970659,0.000000,0.000000,0.000000,-1,-0.296939,-1.581755,-0.306333,-0.036287,0.114778,0.097868
"2018-06-07 01:11:57.059 +0000",1528333917.059451,-2.947958,0.132806,0.430958,-0.190732,-0.132416,0.972666,0.000000,0.000000,0.000000,-1,-0.250637,-1.014310,-0.251006,0.025067,0.041092,0.120672
"2018-06-07 01:11:57.070 +0000",1528333917.069525,-2.953228,0.136200,0.432423,-0.185518,-0.135779,0.973210,0.000000,0.000000,0.000000,-1,-0.330487,-0.359410,-0.191909,0.066851,-0.047128,0.130382
"2018-06-07 01:11:57.080 +0000",1528333917.079598,-2.953619,0.140729,0.433155,-0.185020,-0.140265,0.972668,0.000000,0.000000,0.000000,-1,-0.464728,0.070303,-0.134418,0.096275,-0.100488,0.082706
"2018-06-07 01:11:57.090 +0000",1528333917.089673,-2.950610,0.146403,0.432370,-0.187792,-0.145880,0.971310,0.000000,0.000000,0.000000,-1,-0.592083,0.332833,0.004320,0.121401,-0.169977,0.015628
"2018-06-07 01:11:57.100 +0000",1528333917.099748,-2.947105,0.152009,0.430516,-0.191035,-0.151424,0.969829,0.000000,0.000000,0.000000,-1,-0.557078,0.295201,0.100939,0.158213,-0.177555,-0.038997
"2018-06-07 01:11:57.110 +0000",1528333917.109822,-2.943746,0.155415,0.427462,-0.194188,-0.154790,0.968670,0.000000,0.000000,0.000000,-1,-0.330367,0.322629,0.255392,0.108785,-0.256007,-0.050854
"2018-06-07 01:11:57.120 +0000",1528333917.119895,-2.938174,0.157017,0.424097,-0.199533,-0.156373,0.967329,0.000000,0.000000,0.000000,-1,-0.200662,0.554446,0.296644,0.127267,-0.121566,0.063997
"2018-06-07 01:11:57.130 +0000",1528333917.129970,-2.930654,0.158278,0.420867,-0.206760,-0.157618,0.965608,0.000000,0.000000,0.000000,-1,-0.185980,0.731308,0.277763,0.101566,0.018320,0.112349
"2018-06-07 01:11:57.140 +0000",1528333917.140044,-2.923310,0.159017,0.417734,-0.213820,-0.158348,0.963949,0.000000,0.000000,0.000000,-1,-0.110358,0.632666,0.290211,0.078597,0.028663,0.038248
"2018-06-07 01:11:57.150 +0000",1528333917.150118,-2.918985,0.158549,0.414973,-0.218004,-0.157886,0.963087,0.000000,0.000000,0.000000,-1,0.016192,0.304893,0.264228,0.027864,0.037875,-0.045134
"2018-06-07 01:11:57.160 +0000",1528333917.160192,-2.916917,0.157271,0.413049,-0.220040,-0.156624,0.962830,0.000000,0.000000,0.000000,-1,0.099852,0.147338,0.194737,-0.017876,0.090370,-0.027436
"2018-06-07 01:11:57.170 +0000",1528333917.170266,-2.915232,0.155714,0.411847,-0.221716,-0.155085,0.962695,0.000000,0.000000,0.000000,-1,0.127612,0.159743,0.134473,-0.018487,0.110682,0.019147
"2018-06-07 01:11:57.180 +0000",1528333917.180340,-2.912744,0.154351,0.411218,-0.224158,-0.153738,0.962345,0.000000,0.000000,0.000000,-1,0.114275,0.257631,0.081006,-0.034768,0.090338,0.048245
"2018-06-07 01:11:57.190 +0000",1528333917.190413,-2.909475,0.153515,0.411015,-0.227332,-0.152913,0.961732,0.000000,0.000000,0.000000,-1,0.057961,0.342267,0.017918,-0.047219,0.083302,0.027450
"2018-06-07 01:11:57.200 +0000",1528333917.200488,-2.905873,0.153738,0.411386,-0.230787,-0.153133,0.960874,0.000000,0.000000,0.000000,-1,-0.038135,0.359865,-0.053879,-0.062808,0.064769,0.000659
"2018-06-07 01:11:57.211 +0000",1528333917.210562,-2.902818,0.154647,0.412372,-0.233689,-0.154031,0.960029,0.000000,0.000000,0.000000,-1,-0.062615,0.307474,-0.142178,-0.071075,0.022027,-0.035773
"2018-06-07 01:11:57.221 +0000",1528333917.220635,-2.899898,0.154990,0.414041,-0.236479,-0.154370,0.959291,0.000000,0.000000,0.000000,-1,0.034239,0.317750,-0.172488,-0.068316,-0.069034,-0.052720
"2018-06-07 01:11:57.231 +0000",1528333917.230711,-2.896717,0.154365,0.416169,-0.239551,-0.153753,0.958627,0.000000,0.000000,0.000000,-1,0.130937,0.368579,-0.187621,-0.026836,-0.059977,-0.017267
"2018-06-07 01:11:57.241 +0000",1528333917.240785,-2.892842,0.153630,0.418395,-0.243292,-0.153026,0.957801,0.000000,0.000000,0.000000,-1,0.115195,0.423459,-0.196030,-0.024362,-0.024098,0.032967
"2018-06-07 01:11:57.251 +0000",1528333917.250859,-2.889674,0.153285,0.420430,-0.246339,-0.152685,0.957076,0.000000,0.000000,0.000000,-1,0.075221,0.315678,-0.174739,-0.036880,-0.007349,0.014008
"2018-06-07 01:11:57.261 +0000",1528333917.260932,-2.888114,0.152403,0.421906,-0.247865,-0.151814,0.956821,0.000000,0.000000,0.000000,-1,0.056060,0.126571,-0.118236,-0.020857,-0.026821,-0.035633
"2018-06-07 01:11:57.271 +0000",1528333917.271007,-2.888022,0.151463,0.422367,-0.247989,-0.150884,0.956937,0.000000,0.000000,0.000000,-1,-0.013838,-0.038689,-0.022825,0.028216,-0.112315,-0.049756
"2018-06-07 01:11:57.281 +0000",1528333917.281081,-2.888218,0.151741,0.422025,-0.247791,-0.151159,0.956944,0.000000,0.000000,0.000000,-1,-0.127427,-0.053366,-0.001094,0.057819,-0.133188,-0.035390
"2018-06-07 01:11:57.291 +0000",1528333917.291155,-2.887216,0.152902,0.421521,-0.248705,-0.152307,0.956525,0.000000,0.000000,0.000000,-1,-0.125549,0.048663,0.015333,-0.028013,-0.060721,-0.015774
"2018-06-07 01:11:57.301 +0000",1528333917.301229,-2.885318,0.153800,0.421150,-0.250485,-0.153194,0.955918,0.000000,0.000000,0.000000,-1,0.027669,0.143475,0.020636,-0.086734,-0.015385,-0.001328
"2018-06-07 01:11:57.311 +0000",1528333917.311303,-2.882834,0.153061,0.421134,-0.252887,-0.152464,0.955402,0.000000,0.000000,0.000000,-1,0.157622,0.255710,0.044329,-0.028530,-0.070345,0.040005
"2018-06-07 01:11:57.321 +0000",1528333917.321377,-2.878642,0.151389,0.420989,-0.256957,-0.150811,0.954578,0.000000,0.000000,0.000000,-1,0.166752,0.453259,0.062093,0.001891,-0.102607,0.061505
"2018-06-07 01:11:57.331 +0000",1528333917.331450,-2.872378,0.150859,0.420696,-0.262952,-0.150288,0.953026,0.000000,0.000000,0.000000,-1,-0.000225,0.661494,0.032963,0.010861,-0.012661,0.063224
"2018-06-07 01:11:57.342 +0000",1528333917.341525,-2.866289,0.152634,0.420069,-0.268677,-0.152042,0.951149,0.000000,0.000000,0.000000,-1,-0.192173,0.505140,0.017889,-0.004730,0.027408,-0.016151
"2018-06-07 01:11:57.352 +0000",1528333917.351599,-2.864408,0.156259,0.419167,-0.270314,-0.155624,0.950106,0.000000,0.000000,0.000000,-1,-0.249732,0.118478,0.038409,0.006947,-0.002503,-0.147829
"2018-06-07 01:11:57.362 +0000",1528333917.361674,-2.865644,0.159566,0.417978,-0.268997,-0.158890,0.949939,0.000000,0.000000,0.000000,-1,-0.187877,-0.119752,0.082751,0.003464,-0.026947,-0.122103
"2018-06-07 01:11:57.372 +0000",1528333917.371747,-2.867067,0.160885,0.416755,-0.267588,-0.160192,0.950118,0.000000,0.000000,0.000000,-1,-0.074488,-0.179871,0.096300,0.005564,-0.005580,-0.020033
"2018-06-07 01:11:57.382 +0000",1528333917.381822,-2.868071,0.160566,0.415792,-0.266648,-0.159877,0.950435,0.000000,0.000000,0.000000,-1,0.040050,-0.179524,0.089585,-0.020599,0.004832,0.051701
"2018-06-07 01:11:57.392 +0000",1528333917.391896,-2.869271,0.160122,0.415325,-0.265526,-0.159438,0.950822,0.000000,0.000000,0.000000,-1,0.089530,-0.109031,0.066013,-0.033867,0.015670,0.071639
"2018-06-07 01:11:57.402 +0000",1528333917.401969,-2.870010,0.160113,0.415163,-0.264824,-0.159430,0.951019,0.000000,0.000000,0.000000,-1,0.065550,-0.037608,0.034006,-0.035240,0.004614,0.059463
"2018-06-07 01:11:57.412 +0000",1528333917.412044,-2.870485,0.159696,0.415084,-0.264389,-0.159018,0.951210,0.000000,0.000000,0.000000,-1,0.019428,-0.023407,0.020170,-0.038177,-0.010324,0.009728
"2018-06-07 01:11:57.422 +0000",1528333917.422118,-2.870935,0.159480,0.415074,-0.263971,-0.158805,0.951362,0.000000,0.000000,0.000000,-1,-0.019109,-0.078254,-0.015398,-0.001150,0.012717,-0.028098
"2018-06-07 01:11:57.432 +0000",1528333917.432192,-2.871252,0.160011,0.415306,-0.263647,-0.159329,0.951364,0.000000,0.000000,0.000000,-1,-0.013730,-0.056203,-0.034708,0.004247,-0.016315,-0.045785
"2018-06-07 01:11:57.442 +0000",1528333917.442266,-2.871024,0.160636,0.415437,-0.263837,-0.159946,0.951208,0.000000,0.000000,0.000000,-1,-0.003422,0.000833,-0.016280,0.047971,-0.059964,-0.030111
"2018-06-07 01:11:57.452 +0000",1528333917.452340,-2.870454,0.160853,0.415077,-0.264370,-0.160160,0.951024,0.000000,0.000000,0.000000,-1,-0.031331,0.065230,0.053889,0.068386,-0.104854,-0.019658
"2018-06-07 01:11:57.462 +0000",1528333917.462414,-2.868818,0.161109,0.413465,-0.265914,-0.160413,0.950551,0.000000,0.000000,0.000000,-1,-0.095315,0.155688,0.168317,0.051894,-0.160540,-0.005666
"2018-06-07 01:11:57.472 +0000",1528333917.472487,-2.866398,0.161283,0.411030,-0.268206,-0.160584,0.949878,0.000000,0.000000,0.000000,-1,-0.104203,0.196037,0.226539,0.053271,-0.093108,-0.010730
"2018-06-07 01:11:57.483 +0000",1528333917.482562,-2.864009,0.161415,0.408339,-0.270469,-0.160715,0.949214,0.000000,0.000000,0.000000,-1,-0.095969,0.174001,0.251196,0.029274,-0.029028,-0.006618
"2018-06-07 01:11:57.493 +0000",1528333917.492637,-2.861720,0.161535,0.405598,-0.272636,-0.160833,0.948574,0.000000,0.000000,0.000000,-1,-0.072849,0.169679,0.250055,-0.012841,-0.004786,0.002583
"2018-06-07 01:11:57.503 +0000",1528333917.502711,-2.860371,0.161475,0.403106,-0.273917,-0.160774,0.948214,0.000000,0.000000,0.000000,-1,-0.075748,0.072056,0.229340,-0.037606,0.022880,0.008863
"2018-06-07 01:11:57.513 +0000",1528333917.512784,-2.859706,0.161995,0.400921,-0.274525,-0.161288,0.947952,0.000000,0.000000,0.000000,-1,-0.089009,0.023907,0.184054,-0.068127,0.042849,0.012254
"2018-06-07 01:11:57.523 +0000",1528333917.522859,-2.859734,0.162803,0.399173,-0.274462,-0.162085,0.947834,0.000000,0.000000,0.000000,-1,-0.057334,0.016397,0.163522,-0.020383,0.021704,0.007748
"2018-06-07 01:11:57.533 +0000",1528333917.532933,-2.859656,0.163810,0.397505,-0.274491,-0.163078,0.947655,0.000000,0.000000,0.000000,-1,-0.046911,0.055922,0.168991,0.029587,-0.004448,0.011559
"2018-06-07 01:11:57.543 +0000",1528333917.543006,-2.859050,0.165242,0.395898,-0.274999,-0.164491,0.947263,0.000000,0.000000,0.000000,-1,-0.051019,0.079027,0.154009,0.042745,0.025621,0.017794
"2018-06-07 01:11:57.553 +0000",1528333917.553081,-2.858073,0.166375,0.394551,-0.275872,-0.165608,0.946815,0.000000,0.000000,0.000000,-1,-0.072849,0.142794,0.116597,0.000100,0.077306,0.023446
"2018-06-07 01:11:57.563 +0000",1528333917.563155,-2.856181,0.167118,0.393292,-0.277629,-0.166342,0.946173,0.000000,0.000000,0.000000,-1,-0.084416,0.198770,0.111408,0.023936,0.043173,0.021616
"2018-06-07 01:11:57.573 +0000",1528333917.573229,-2.853846,0.167651,0.391709,-0.279812,-0.166867,0.945437,0.000000,0.000000,0.000000,-1,-0.104576,0.204094,0.137285,0.060665,-0.001041,0.007429
"2018-06-07 01:11:57.583 +0000",1528333917.583302,-2.850883,0.168316,0.389869,-0.282580,-0.167523,0.944497,0.000000,0.000000,0.000000,-1,-0.151944,0.250036,0.145057,0.058749,-0.015720,0.010154
"2018-06-07 01:11:57.593 +0000",1528333917.593377,-2.848037,0.168726,0.387892,-0.285247,-0.167927,0.943623,0.000000,0.000000,0.000000,-1,-0.140423,0.207215,0.154586,0.072432,0.006596,-0.015629
"2018-06-07 01:11:57.603 +0000",1528333917.603451,-2.845504,0.169634,0.385920,-0.287592,-0.168822,0.942751,0.000000,0.000000,0.000000,-1,-0.178184,0.221417,0.146109,0.047632,0.029799,0.001142
"2018-06-07 01:11:57.614 +0000",1528333917.613524,-2.843101,0.171343,0.383983,-0.289771,-0.170506,0.941780,0.000000,0.000000,0.000000,-1,-0.241117,0.258633,0.130227,0.013541,0.063359,0.009361
"2018-06-07 01:11:57.624 +0000",1528333917.623600,-2.840308,0.173628,0.382124,-0.292284,-0.172757,0.940592,0.000000,0.000000,0.000000,-1,-0.321807,0.312328,0.099374,-0.015913,0.108518,0.016958
"2018-06-07 01:11:57.634 +0000",1528333917.633674,-2.837205,0.175962,0.380508,-0.295079,-0.175055,0.939294,0.000000,0.000000,0.000000,-1,-0.339258,0.294927,0.048808,-0.004771,0.110953,0.001289
"2018-06-07 01:11:57.644 +0000",1528333917.643748,-2.835016,0.178028,0.379406,-0.297025,-0.177090,0.938298,0.000000,0.000000,0.000000,-1,-0.244553,0.210714,0.036514,0.003553,0.067211,-0.030949
"2018-06-07 01:11:57.654 +0000",1528333917.653821,-2.833615,0.179465,0.378687,-0.298262,-0.178504,0.937638,0.000000,0.000000,0.000000,-1,-0.135120,0.178176,0.014656,0.010176,0.041571,-0.020234
"2018-06-07 01:11:57.664 +0000",1528333917.663896,-2.832991,0.179560,0.378693,-0.298841,-0.178596,0.937435,0.000000,0.000000,0.000000,-1,0.038229,0.094110,0.019393,-0.004549,0.045479,-0.013500
"2018-06-07 01:11:57.674 +0000",1528333917.673970,-2.833502,0.177899,0.378989,-0.298452,-0.176962,0.937869,0.000000,0.000000,0.000000,-1,0.187443,0.002301,0.022011,-0.003885,0.027182,-0.026019
"2018-06-07 01:11:57.684 +0000",1528333917.684043,-2.834064,0.175288,0.380023,-0.298063,-0.174392,0.938474,0.000000,0.000000,0.000000,-1,0.260347,0.011525,-0.035138,-0.034654,0.074172,0.008243
"2018-06-07 01:11:57.694 +0000",1528333917.694118,-2.834336,0.172648,0.381484,-0.297946,-0.171791,0.938990,0.000000,0.000000,0.000000,-1,0.229182,0.012725,-0.080241,-0.036221,0.086815,0.025716
"2018-06-07 01:11:57.704 +0000",1528333917.704192,-2.834967,0.170234,0.383092,-0.297478,-0.169413,0.939570,0.000000,0.000000,0.000000,-1,0.184337,-0.061913,-0.112624,-0.062614,0.054789,0.000829
"2018-06-07 01:11:57.714 +0000",1528333917.714266,-2.835994,0.168334,0.385053,-0.296609,-0.167540,0.940180,0.000000,0.000000,0.000000,-1,0.154281,-0.061776,-0.165262,-0.079840,0.020049,-0.029154
"2018-06-07 01:11:57.724 +0000",1528333917.724339,-2.835691,0.167263,0.387822,-0.296948,-0.166484,0.940261,0.000000,0.000000,0.000000,-1,0.140126,0.137284,-0.261458,-0.054202,-0.035192,-0.007857
"2018-06-07 01:11:57.734 +0000",1528333917.734414,-2.832641,0.166763,0.391243,-0.299840,-0.165991,0.939430,0.000000,0.000000,0.000000,-1,0.128787,0.435020,-0.326181,-0.025966,-0.085764,0.031396
"2018-06-07 01:11:57.744 +0000",1528333917.744488,-2.826476,0.166323,0.395496,-0.305648,-0.165557,0.937633,0.000000,0.000000,0.000000,-1,0.160577,0.760369,-0.402753,-0.007814,-0.134339,0.042729
"2018-06-07 01:11:57.755 +0000",1528333917.754561,-2.817730,0.165103,0.399839,-0.313901,-0.164354,0.935114,0.000000,0.000000,0.000000,-1,0.271136,0.992003,-0.330265,0.043942,-0.140791,0.034933
"2018-06-07 01:11:57.765 +0000",1528333917.764637,-2.807532,0.162488,0.402595,-0.323560,-0.161774,0.932267,0.000000,0.000000,0.000000,-1,0.302193,1.061562,-0.142971,0.001096,-0.123718,0.040267
"2018-06-07 01:11:57.775 +0000",1528333917.774711,-2.797444,0.160029,0.404457,-0.333082,-0.159347,0.929327,0.000000,0.000000,0.000000,-1,0.284948,1.011849,-0.079613,-0.046877,-0.090500,0.019937
"2018-06-07 01:11:57.785 +0000",1528333917.784785,-2.788901,0.157855,0.405681,-0.341127,-0.157200,0.926771,0.000000,0.000000,0.000000,-1,0.226948,0.806172,-0.024145,-0.043699,-0.024028,-0.023268
"2018-06-07 01:11:57.795 +0000",1528333917.794858,-2.783265,0.156752,0.406093,-0.346406,-0.156111,0.924996,0.000000,0.000000,0.000000,-1,0.071610,0.476299,0.002142,-0.033004,0.006895,-0.072289
"2018-06-07 01:11:57.805 +0000",1528333917.804933,-2.781011,0.157445,0.405934,-0.348452,-0.156795,0.924111,0.000000,0.000000,0.000000,-1,-0.112836,0.148707,-0.011296,-0.032011,0.001186,-0.110299
"2018-06-07 01:11:57.815 +0000",1528333917.815007,-2.780694,0.159322,0.405488,-0.348640,-0.158649,0.923723,0.000000,0.000000,0.000000,-1,-0.206022,-0.001865,-0.030882,-0.043465,-0.016216,-0.106112
"2018-06-07 01:11:57.825 +0000",1528333917.825080,-2.780729,0.161378,0.405145,-0.348492,-0.160678,0.923429,0.000000,0.000000,0.000000,-1,-0.196512,-0.000709,-0.038430,-0.032276,-0.044537,-0.057127
"2018-06-07 01:11:57.835 +0000",1528333917.835154,-2.780346,0.162980,0.404640,-0.348755,-0.162260,0.923053,0.000000,0.000000,0.000000,-1,-0.155881,0.035468,0.000305,0.003769,-0.098620,-0.013446
"2018-06-07 01:11:57.845 +0000",1528333917.845228,-2.779587,0.164166,0.403871,-0.349386,-0.163429,0.922608,0.000000,0.000000,0.000000,-1,-0.131009,0.075993,0.039089,0.007254,-0.108589,-0.000733
"2018-06-07 01:11:57.855 +0000",1528333917.855302,-2.778411,0.165160,0.402949,-0.350413,-0.164410,0.922044,0.000000,0.000000,0.000000,-1,-0.124838,0.100102,0.053129,-0.021749,-0.047733,0.002806
"2018-06-07 01:11:57.865 +0000",1528333917.865376,-2.778064,0.166047,0.401894,-0.350681,-0.165285,0.921786,0.000000,0.000000,0.000000,-1,-0.116411,-0.018482,0.064596,-0.073406,-0.001478,-0.028460
"2018-06-07 01:11:57.875 +0000",1528333917.875450,-2.778955,0.166840,0.401044,-0.349814,-0.166067,0.921975,0.000000,0.000000,0.000000,-1,-0.098327,-0.117158,0.047058,-0.096429,0.041296,-0.035333
"2018-06-07 01:11:57.886 +0000",1528333917.885524,-2.779946,0.167457,0.400346,-0.348863,-0.166676,0.922226,0.000000,0.000000,0.000000,-1,-0.076250,-0.102807,0.042746,-0.069945,0.018086,0.000061
"2018-06-07 01:11:57.896 +0000",1528333917.895598,-2.780666,0.167814,0.399784,-0.348178,-0.167028,0.922421,0.000000,0.000000,0.000000,-1,-0.043706,-0.077464,0.041670,-0.036938,-0.015620,0.010104
"2018-06-07 01:11:57.906 +0000",1528333917.905673,-2.781661,0.167826,0.399249,-0.347260,-0.167039,0.922765,0.000000,0.000000,0.000000,-1,-0.014303,-0.121319,0.047929,-0.027267,-0.009093,-0.003149
"2018-06-07 01:11:57.916 +0000",1528333917.915747,-2.783582,0.167899,0.398900,-0.345482,-0.167112,0.923419,0.000000,0.000000,0.000000,-1,-0.022412,-0.227720,0.022898,-0.025993,-0.012088,-0.008990
"2018-06-07 01:11:57.926 +0000",1528333917.925821,-2.786735,0.168211,0.398447,-0.342550,-0.167419,0.924454,0.000000,0.000000,0.000000,-1,-0.052838,-0.348604,0.033372,-0.010981,-0.063660,-0.015427
"2018-06-07 01:11:57.936 +0000",1528333917.935895,-2.790420,0.169039,0.397790,-0.339094,-0.168236,0.925580,0.000000,0.000000,0.000000,-1,-0.070733,-0.402493,0.045089,0.010206,-0.100121,-0.018307
"2018-06-07 01:11:57.946 +0000",1528333917.945969,-2.793722,0.169298,0.396758,-0.336020,-0.168491,0.926653,0.000000,0.000000,0.000000,-1,-0.046852,-0.414660,0.082646,0.004172,-0.098294,-0.018938
"2018-06-07 01:11:57.956 +0000",1528333917.956043,-2.796690,0.168962,0.395668,-0.333287,-0.168159,0.927700,0.000000,0.000000,0.000000,-1,-0.026972,-0.386090,0.089138,-0.013835,-0.038582,0.001271
"2018-06-07 01:11:57.966 +0000",1528333917.966117,-2.799277,0.168898,0.394333,-0.330891,-0.168096,0.928569,0.000000,0.000000,0.000000,-1,-0.065074,-0.318257,0.118465,-0.000957,-0.039240,0.029760
"2018-06-07 01:11:57.976 +0000",1528333917.976191,-2.801349,0.169946,0.392121,-0.328907,-0.169129,0.929085,0.000000,0.000000,0.000000,-1,-0.195877,-0.269502,0.185596,0.035755,-0.107314,0.036399
"2018-06-07 01:11:57.986 +0000",1528333917.986265,-2.803808,0.171613,0.388759,-0.326527,-0.170772,0.929624,0.000000,0.000000,0.000000,-1,-0.272055,-0.364472,0.269395,0.082691,-0.147465,-0.006407
"2018-06-07 01:11:57.996 +0000",1528333917.996339,-2.807285,0.172979,0.384831,-0.323216,-0.172117,0.930533,0.000000,0.000000,0.000000,-1,-0.233549,-0.464509,0.328176,0.082478,-0.131227,-0.048453
"2018-06-07 01:11:58.006 +0000",1528333918.006413,-2.810739,0.173863,0.380464,-0.319951,-0.172988,0.931499,0.000000,0.000000,0.000000,-1,-0.159595,-0.420708,0.403429,0.102376,-0.128098,-0.020351
"2018-06-07 01:11:58.016 +0000",1528333918.016487,-2.812506,0.173904,0.376001,-0.318301,-0.173029,0.932057,0.000000,0.000000,0.000000,-1,-0.053962,-0.200992,0.435020,0.099231,-0.086218,0.031642
"2018-06-07 01:11:58.027 +0000",1528333918.026561,-2.811996,0.172925,0.371857,-0.318832,-0.172064,0.932054,0.000000,0.000000,0.000000,-1,0.044585,0.007870,0.433254,0.078979,-0.002130,0.063307
"2018-06-07 01:11:58.037 +0000",1528333918.036635,-2.810983,0.171315,0.368082,-0.319865,-0.170478,0.931992,0.000000,0.000000,0.000000,-1,0.045979,0.003667,0.389137,0.029094,0.057899,0.048080
"2018-06-07 01:11:58.047 +0000",1528333918.046709,-2.810927,0.170488,0.364856,-0.319963,-0.169664,0.932107,0.000000,0.000000,0.000000,-1,-0.024818,-0.064285,0.315958,0.014086,0.130204,0.019385
"2018-06-07 01:11:58.057 +0000",1528333918.056784,-2.811425,0.170710,0.361849,-0.319486,-0.169882,0.932231,0.000000,0.000000,0.000000,-1,-0.079175,-0.086261,0.284825,0.048765,0.070379,-0.006419
"2018-06-07 01:11:58.067 +0000",1528333918.066858,-2.812068,0.171387,0.358591,-0.318850,-0.170549,0.932326,0.000000,0.000000,0.000000,-1,-0.094216,-0.080994,0.327900,0.077395,-0.006346,-0.015487
"2018-06-07 01:11:58.077 +0000",1528333918.076932,-2.812436,0.171641,0.354723,-0.318493,-0.170799,0.932402,0.000000,0.000000,0.000000,-1,-0.059032,-0.073496,0.395607,0.083614,-0.046517,-0.011031
"2018-06-07 01:11:58.087 +0000",1528333918.087006,-2.813534,0.171141,0.350588,-0.317496,-0.170307,0.932832,0.000000,0.000000,0.000000,-1,-0.000471,-0.163538,0.440388,0.050422,-0.059079,-0.011659
"2018-06-07 01:11:58.097 +0000",1528333918.097080,-2.815604,0.169694,0.346151,-0.315643,-0.168881,0.933720,0.000000,0.000000,0.000000,-1,0.048531,-0.255860,0.499168,0.029892,-0.091907,-0.004795
"2018-06-07 01:11:58.107 +0000",1528333918.107154,-2.818500,0.167456,0.340667,-0.313057,-0.166674,0.934986,0.000000,0.000000,0.000000,-1,0.028813,-0.365093,0.618292,0.092492,-0.114408,0.016796
"2018-06-07 01:11:58.117 +0000",1528333918.117228,-2.822285,0.165118,0.333737,-0.309637,-0.164369,0.936532,0.000000,0.000000,0.000000,-1,-0.043436,-0.510726,0.743884,0.167319,-0.108504,0.016120
"2018-06-07 01:11:58.127 +0000",1528333918.127302,-2.827142,0.162612,0.325325,-0.305211,-0.161896,0.938414,0.000000,0.000000,0.000000,-1,-0.081020,-0.650769,0.868338,0.197225,-0.076598,-0.002119
"2018-06-07 01:11:58.137 +0000",1528333918.137376,-2.833295,0.159968,0.316579,-0.299561,-0.159287,0.940678,0.000000,0.000000,0.000000,-1,-0.027469,-0.752774,0.882977,0.053177,-0.034592,-0.037755
"2018-06-07 01:11:58.147 +0000",1528333918.147450,-2.838754,0.157389,0.309022,-0.294542,-0.156740,0.942688,0.000000,0.000000,0.000000,-1,0.054253,-0.576351,0.750999,-0.111967,0.064348,-0.026352
"2018-06-07 01:11:58.158 +0000",1528333918.157524,-2.841267,0.154447,0.303545,-0.292307,-0.153834,0.943862,0.000000,0.000000,0.000000,-1,0.171954,-0.215160,0.561391,-0.222936,0.125163,-0.009887
"2018-06-07 01:11:58.168 +0000",1528333918.167598,-2.839822,0.151156,0.300162,-0.293821,-0.150581,0.943917,0.000000,0.000000,0.000000,-1,0.217151,0.184254,0.370985,-0.221560,0.153190,0.006828
"2018-06-07 01:11:58.178 +0000",1528333918.177672,-2.837011,0.148671,0.298168,-0.296583,-0.148124,0.943442,0.000000,0.000000,0.000000,-1,0.158359,0.230808,0.224967,-0.153688,0.122550,0.000040
"2018-06-07 01:11:58.188 +0000",1528333918.187746,-2.835821,0.147035,0.296755,-0.297778,-0.146506,0.943317,0.000000,0.000000,0.000000,-1,0.092767,0.058502,0.170834,-0.075696,0.051139,-0.038456
"2018-06-07 01:11:58.198 +0000",1528333918.197821,-2.835391,0.146419,0.295023,-0.298212,-0.145896,0.943275,0.000000,0.000000,0.000000,-1,-0.020746,0.008719,0.187084,0.008584,0.016975,-0.004082
"2018-06-07 01:11:58.208 +0000",1528333918.207895,-2.834952,0.146826,0.292749,-0.298608,-0.146299,0.943088,0.000000,0.000000,0.000000,-1,-0.133228,0.020436,0.198132,0.013589,-0.024050,0.027372
"2018-06-07 01:11:58.218 +0000",1528333918.217969,-2.834214,0.147578,0.290407,-0.299270,-0.147043,0.942762,0.000000,0.000000,0.000000,-1,-0.131156,0.041294,0.199263,-0.002092,-0.049475,0.030581
"2018-06-07 01:11:58.228 +0000",1528333918.228043,-2.832782,0.147764,0.288050,-0.300611,-0.147227,0.942306,0.000000,0.000000,0.000000,-1,-0.076792,0.141256,0.219867,-0.003908,-0.059683,0.017243
"2018-06-07 01:11:58.238 +0000",1528333918.238117,-2.830818,0.147336,0.285729,-0.302481,-0.146804,0.941774,0.000000,0.000000,0.000000,-1,-0.013875,0.164440,0.230547,-0.004999,-0.047837,0.019713
"2018-06-07 01:11:58.248 +0000",1528333918.248191,-2.828227,0.146537,0.283510,-0.304956,-0.146013,0.941099,0.000000,0.000000,0.000000,-1,0.016521,0.239176,0.229619,-0.003028,-0.053145,0.015459
"2018-06-07 01:11:58.258 +0000",1528333918.258265,-2.825617,0.144946,0.281530,-0.307483,-0.144439,0.940519,0.000000,0.000000,0.000000,-1,0.119340,0.247089,0.243390,0.006748,-0.035706,-0.012968
"2018-06-07 01:11:58.268 +0000",1528333918.268339,-2.821970,0.142351,0.279473,-0.311028,-0.141871,0.939744,0.000000,0.000000,0.000000,-1,0.197733,0.352539,0.280089,0.056038,0.006418,-0.012178
"2018-06-07 01:11:58.278 +0000",1528333918.278413,-2.817915,0.139532,0.277342,-0.314962,-0.139080,0.938850,0.000000,0.000000,0.000000,-1,0.196634,0.368985,0.284442,0.018606,-0.016270,-0.002388
"2018-06-07 01:11:58.288 +0000",1528333918.288487,-2.814319,0.137008,0.275049,-0.318447,-0.136580,0.938041,0.000000,0.000000,0.000000,-1,0.170219,0.325990,0.310193,-0.009235,-0.028642,-0.004173
"2018-06-07 01:11:58.299 +0000",1528333918.298561,-2.811835,0.135095,0.272453,-0.320860,-0.134684,0.937493,0.000000,0.000000,0.000000,-1,0.097880,0.186373,0.309952,-0.028825,0.014536,-0.022561
