timestamp,timeIntervalSince1970,attitude.roll,attitude.pitch,attitude.yaw,gravity.x,gravity.y,gravity.z,magneticField.x,magneticField.y,magneticField.z,magneticField.accuracy,rotationRate.x,rotationRate.y,rotationRate.z,userAcceleration.x,userAcceleration.y,userAcceleration.z
"2018-06-07 01:14:08.212 +0000",1528334048.212044,-0.139037,0.473575,0.063736,-0.123336,-0.456071,-0.881355,0.000000,0.000000,0.000000,-1,-1.967295,2.691830,0.600992,0.161514,0.132875,0.224983
"2018-06-07 01:14:08.222 +0000",1528334048.222118,-0.111316,0.450876,0.066673,-0.099985,-0.435754,-0.894495,0.000000,0.000000,0.000000,-1,-2.243033,2.928577,0.506580,0.051172,0.196298,0.064585
"2018-06-07 01:14:08.232 +0000",1528334048.232192,-0.083432,0.428805,0.068400,-0.075790,-0.415784,-0.906300,0.000000,0.000000,0.000000,-1,-2.112238,2.768360,0.317576,-0.063599,0.244031,-0.100384
"2018-06-07 01:14:08.242 +0000",1528334048.242266,-0.059874,0.410260,0.068639,-0.054873,-0.398848,-0.915374,0.000000,0.000000,0.000000,-1,-1.726599,2.184156,0.094486,-0.123472,0.230589,-0.306291
"2018-06-07 01:14:08.252 +0000",1528334048.252340,-0.042353,0.396307,0.066882,-0.039059,-0.386014,-0.921666,0.000000,0.000000,0.000000,-1,-1.283994,1.506887,-0.149442,-0.138004,0.187589,-0.358837
"2018-06-07 01:14:08.262 +0000",1528334048.262414,-0.029673,0.385386,0.063412,-0.027492,-0.375917,-0.926245,0.000000,0.000000,0.000000,-1,-1.059614,1.018584,-0.311647,-0.128224,0.123537,-0.231744
"2018-06-07 01:14:08.272 +0000",1528334048.272488,-0.019978,0.374436,0.059156,-0.018592,-0.365748,-0.930528,0.000000,0.000000,0.000000,-1,-1.123922,0.767329,-0.386450,-0.136147,0.101435,-0.130736
"2018-06-07 01:14:08.283 +0000",1528334048.282562,-0.007832,0.362420,0.053548,-0.007323,-0.354538,-0.935013,0.000000,0.000000,0.000000,-1,-1.218651,1.147556,-0.544323,-0.130998,0.173981,-0.099625
"2018-06-07 01:14:08.293 +0000",1528334048.292636,0.012841,0.350125,0.047135,0.012062,-0.343015,-0.939252,0.000000,0.000000,0.000000,-1,-1.212827,2.091882,-0.598598,-0.045784,0.243116,-0.100359
"2018-06-07 01:14:08.303 +0000",1528334048.302710,0.044181,0.338120,0.042155,0.041666,-0.331714,-0.942459,0.000000,0.000000,0.000000,-1,-1.168821,3.219893,-0.450206,0.073141,0.235843,-0.116928
"2018-06-07 01:14:08.313 +0000",1528334048.312784,0.083803,0.326425,0.040232,0.079285,-0.320659,-0.943871,0.000000,0.000000,0.000000,-1,-1.139091,4.050972,-0.184323,0.130966,0.275676,-0.158394
"2018-06-07 01:14:08.323 +0000",1528334048.322858,0.127967,0.315863,0.041591,0.121305,-0.310637,-0.942757,0.000000,0.000000,0.000000,-1,-1.013456,4.524437,0.083526,0.105441,0.387190,-0.211769
"2018-06-07 01:14:08.333 +0000",1528334048.332932,0.173701,0.308483,0.045556,0.164671,-0.303613,-0.938457,0.000000,0.000000,0.000000,-1,-0.688730,4.670367,0.316622,0.122546,0.393778,-0.242481
"2018-06-07 01:14:08.343 +0000",1528334048.343006,0.216343,0.305467,0.051386,0.204722,-0.300738,-0.931475,0.000000,0.000000,0.000000,-1,-0.308808,4.264302,0.542608,0.200078,0.275241,-0.275694
"2018-06-07 01:14:08.353 +0000",1528334048.353080,0.248311,0.306499,0.059544,0.234313,-0.301723,-0.924154,0.000000,0.000000,0.000000,-1,0.002886,2.976104,0.871597,0.241319,0.175899,-0.284128
"2018-06-07 01:14:08.363 +0000",1528334048.363154,0.248062,0.313232,0.071158,0.233579,-0.308135,-0.922222,0.000000,0.000000,0.000000,-1,0.454275,-0.506711,1.334791,0.280779,0.199050,-0.322422
"2018-06-07 01:14:08.373 +0000",1528334048.373228,0.224708,0.318292,0.088065,0.211629,-0.312945,-0.925893,0.000000,0.000000,0.000000,-1,-0.080331,-2.034930,1.795173,0.335246,0.204165,0.174352
"2018-06-07 01:14:08.383 +0000",1528334048.383302,0.200196,0.315210,0.112285,0.189064,-0.310016,-0.931743,0.000000,0.000000,0.000000,-1,-0.977333,-1.510326,2.279566,0.334481,0.064944,0.638225
"2018-06-07 01:14:08.393 +0000",1528334048.393376,0.180768,0.308011,0.139371,0.171324,-0.303164,-0.937411,0.000000,0.000000,0.000000,-1,-1.189707,-0.976711,2.377337,0.303346,0.060412,0.298373
"2018-06-07 01:14:08.403 +0000",1528334048.403450,0.167548,0.302269,0.164967,0.159205,-0.297687,-0.941295,0.000000,0.000000,0.000000,-1,-0.894148,-0.394641,2.251427,0.102987,0.192615,-0.088444
"2018-06-07 01:14:08.414 +0000",1528334048.413524,0.161603,0.299103,0.188371,0.153757,-0.294663,-0.943150,0.000000,0.000000,0.000000,-1,-0.613220,0.273099,2.105363,0.010138,0.226944,-0.158382
"2018-06-07 01:14:08.424 +0000",1528334048.423598,0.163850,0.297197,0.211106,0.155967,-0.292842,-0.943355,0.000000,0.000000,0.000000,-1,-0.525847,1.105416,2.114038,0.069604,0.209849,-0.051869
"2018-06-07 01:14:08.434 +0000",1528334048.433672,0.175058,0.295511,0.235490,0.166616,-0.291228,-0.942032,0.000000,0.000000,0.000000,-1,-0.571347,2.057319,2.313755,0.193964,0.219192,0.037964
"2018-06-07 01:14:08.444 +0000",1528334048.443746,0.195312,0.293523,0.262659,0.185772,-0.289326,-0.939031,0.000000,0.000000,0.000000,-1,-0.707529,3.039530,2.555717,0.288089,0.224339,0.086385
"2018-06-07 01:14:08.454 +0000",1528334048.453820,0.224071,0.290735,0.291731,0.212875,-0.286656,-0.934084,0.000000,0.000000,0.000000,-1,-0.892955,3.877263,2.662916,0.273911,0.167775,0.145403
"2018-06-07 01:14:08.464 +0000",1528334048.463894,0.258143,0.287090,0.321314,0.244837,-0.283162,-0.927294,0.000000,0.000000,0.000000,-1,-1.064332,4.298455,2.633340,0.197271,0.097570,0.214785
"2018-06-07 01:14:08.474 +0000",1528334048.473968,0.293482,0.282791,0.351031,0.277797,-0.279037,-0.919221,0.000000,0.000000,0.000000,-1,-1.221672,4.300329,2.605739,0.141042,0.011520,0.301591
"2018-06-07 01:14:08.484 +0000",1528334048.484042,0.323837,0.277731,0.381416,0.306013,-0.274174,-0.911693,0.000000,0.000000,0.000000,-1,-1.412213,3.649920,2.605359,0.076205,-0.111461,0.370922
"2018-06-07 01:14:08.494 +0000",1528334048.494116,0.345413,0.271447,0.412430,0.326187,-0.268126,-0.906482,0.000000,0.000000,0.000000,-1,-1.606588,2.748182,2.588122,0.015015,-0.110277,0.352680
"2018-06-07 01:14:08.504 +0000",1528334048.504190,0.360012,0.264874,0.444510,0.339999,-0.261787,-0.903254,0.000000,0.000000,0.000000,-1,-1.685722,2.205186,2.701818,0.083722,-0.074989,0.270502
"2018-06-07 01:14:08.514 +0000",1528334048.514264,0.373834,0.259925,0.480042,0.352920,-0.257008,-0.899663,0.000000,0.000000,0.000000,-1,-1.673349,2.346159,3.124928,0.268235,-0.065456,0.183080
"2018-06-07 01:14:08.524 +0000",1528334048.524338,0.387375,0.258699,0.521222,0.365189,-0.255823,-0.895093,0.000000,0.000000,0.000000,-1,-1.534814,2.365587,3.820609,0.446533,-0.119772,0.011441
"2018-06-07 01:14:08.534 +0000",1528334048.534413,0.399867,0.262439,0.568820,0.375966,-0.259437,-0.889574,0.000000,0.000000,0.000000,-1,-1.200953,2.129051,4.689353,0.531413,-0.280358,-0.115828
"2018-06-07 01:14:08.544 +0000",1528334048.544487,0.405479,0.274107,0.620820,0.379733,-0.270687,-0.884608,0.000000,0.000000,0.000000,-1,-0.779525,1.863937,5.100665,0.437879,-0.145344,-0.149190
"2018-06-07 01:14:08.555 +0000",1528334048.554561,0.409618,0.289768,0.672087,0.381656,-0.285730,-0.879032,0.000000,0.000000,0.000000,-1,-0.434823,1.843034,5.078302,0.304288,0.164667,-0.087704
"2018-06-07 01:14:08.565 +0000",1528334048.564635,0.415833,0.305778,0.720034,0.385214,-0.301035,-0.872346,0.000000,0.000000,0.000000,-1,-0.374230,2.074296,4.681922,0.135156,0.361795,0.093385
"2018-06-07 01:14:08.575 +0000",1528334048.574709,0.425747,0.318504,0.762667,0.392230,-0.313146,-0.864925,0.000000,0.000000,0.000000,-1,-0.479079,2.234558,4.091024,-0.243166,0.387594,0.214550
"2018-06-07 01:14:08.585 +0000",1528334048.584783,0.435404,0.330180,0.800618,0.398994,-0.324213,-0.857724,0.000000,0.000000,0.000000,-1,-0.405985,2.094035,3.617164,-0.459922,0.323450,0.148388
"2018-06-07 01:14:08.595 +0000",1528334048.594857,0.442923,0.341549,0.833381,0.403826,-0.334947,-0.851313,0.000000,0.000000,0.000000,-1,-0.259053,1.724337,3.130636,-0.346743,0.322237,-0.108175
"2018-06-07 01:14:08.605 +0000",1528334048.604931,0.448073,0.350255,0.861526,0.406926,-0.343137,-0.846562,0.000000,0.000000,0.000000,-1,-0.414461,1.367063,2.622249,-0.196034,0.289976,-0.197917
"2018-06-07 01:14:08.615 +0000",1528334048.615005,0.451488,0.354122,0.887412,0.409233,-0.346767,-0.843967,0.000000,0.000000,0.000000,-1,-0.764811,1.102787,2.321102,-0.130287,0.087001,-0.099300
"2018-06-07 01:14:08.625 +0000",1528334048.625079,0.452062,0.355418,0.913399,0.409520,-0.347982,-0.843327,0.000000,0.000000,0.000000,-1,-0.979047,0.911671,2.203791,-0.069585,-0.101908,-0.049052
"2018-06-07 01:14:08.635 +0000",1528334048.635153,0.451765,0.355627,0.937685,0.409238,-0.348178,-0.843383,0.000000,0.000000,0.000000,-1,-0.946681,0.777705,1.972063,-0.053220,-0.118512,-0.151993
"2018-06-07 01:14:08.645 +0000",1528334048.645227,0.451559,0.355430,0.958310,0.409095,-0.347993,-0.843529,0.000000,0.000000,0.000000,-1,-0.828417,0.659803,1.631546,-0.099814,-0.080962,-0.224983
"2018-06-07 01:14:08.655 +0000",1528334048.655301,0.453017,0.353018,0.975179,0.410690,-0.345731,-0.843684,0.000000,0.000000,0.000000,-1,-0.861860,0.525852,1.352641,-0.073638,-0.088763,-0.201558
"2018-06-07 01:14:08.665 +0000",1528334048.665375,0.453854,0.348583,0.990881,0.412064,-0.341566,-0.844710,0.000000,0.000000,0.000000,-1,-1.084327,0.691242,1.032013,-0.010590,-0.105242,-0.123139
"2018-06-07 01:14:08.675 +0000",1528334048.675449,0.458648,0.341195,1.004016,0.417215,-0.334613,-0.844965,0.000000,0.000000,0.000000,-1,-1.222760,0.979883,0.695418,-0.025537,-0.119137,-0.066000
"2018-06-07 01:14:08.686 +0000",1528334048.685523,0.465149,0.332473,1.014337,0.423992,-0.326381,-0.844811,0.000000,0.000000,0.000000,-1,-1.189040,0.950429,0.411284,-0.104687,-0.159520,-0.133873
"2018-06-07 01:14:08.696 +0000",1528334048.695597,0.486905,0.315308,1.016265,0.444826,-0.310109,-0.840215,0.000000,0.000000,0.000000,-1,-1.012400,0.667696,0.148676,-0.223253,-0.210506,-0.256876
"2018-06-07 01:14:08.706 +0000",1528334048.705671,0.492086,0.307692,1.019263,0.450276,-0.302859,-0.839957,0.000000,0.000000,0.000000,-1,-0.732384,0.602965,-0.198512,-0.242909,-0.197339,-0.234277
"2018-06-07 01:14:08.716 +0000",1528334048.715745,0.499333,0.300231,1.017575,0.457421,-0.295740,-0.838632,0.000000,0.000000,0.000000,-1,-0.535173,0.700650,-0.588063,-0.198662,-0.128210,-0.117896
"2018-06-07 01:14:08.726 +0000",1528334048.725819,0.509467,0.291582,1.012617,0.467126,-0.287468,-0.836155,0.000000,0.000000,0.000000,-1,-0.539332,0.925869,-0.895032,-0.157830,-0.117363,-0.025066
"2018-06-07 01:14:08.736 +0000",1528334048.735893,0.559477,0.261158,0.996670,0.512746,-0.258199,-0.818794,0.000000,0.000000,0.000000,-1,-0.706278,1.177529,-1.070324,-0.145253,-0.141398,0.051628
"2018-06-07 01:14:08.746 +0000",1528334048.745967,0.570117,0.251615,0.991686,0.522735,-0.248969,-0.815330,0.000000,0.000000,0.000000,-1,-0.401369,0.779802,-0.788209,0.061646,-0.121103,-0.118325
"2018-06-07 01:14:08.756 +0000",1528334048.756041,0.573904,0.250577,0.989409,0.525959,-0.247963,-0.813561,0.000000,0.000000,0.000000,-1,0.137730,0.161321,-0.064106,0.442699,0.221824,-0.508766
"2018-06-07 01:14:08.766 +0000",1528334048.766115,0.573154,0.254354,0.989265,0.524837,-0.251620,-0.813162,0.000000,0.000000,0.000000,-1,0.364734,-0.129084,0.228180,0.228688,0.430590,-0.213006
"2018-06-07 01:14:08.776 +0000",1528334048.776189,0.600217,0.242512,0.981744,0.548293,-0.240142,-0.801065,0.000000,0.000000,0.000000,-1,0.400440,-0.353049,0.256489,-0.126739,0.162032,-0.038122
"2018-06-07 01:14:08.786 +0000",1528334048.786263,0.595195,0.247419,0.982275,0.543597,-0.244902,-0.802823,0.000000,0.000000,0.000000,-1,0.359022,-0.514868,0.335711,-0.123477,-0.000078,-0.038592
"2018-06-07 01:14:08.796 +0000",1528334048.796337,0.589734,0.251686,0.983621,0.538618,-0.249037,-0.804904,0.000000,0.000000,0.000000,-1,0.247624,-0.494344,0.341404,-0.113966,0.006102,-0.057218
"2018-06-07 01:14:08.806 +0000",1528334048.806411,0.584630,0.255090,0.985566,0.534032,-0.252332,-0.806931,0.000000,0.000000,0.000000,-1,0.166663,-0.441895,0.346045,-0.065953,0.032087,-0.047286
"2018-06-07 01:14:08.816 +0000",1528334048.816485,0.604944,0.244889,0.981549,0.551748,-0.242449,-0.797993,0.000000,0.000000,0.000000,-1,0.157160,-0.348590,0.340960,-0.008672,0.002383,-0.098827
"2018-06-07 01:14:08.827 +0000",1528334048.826559,0.600982,0.247840,0.983130,0.548175,-0.245311,-0.799579,0.000000,0.000000,0.000000,-1,0.154570,-0.364766,0.269926,0.000607,-0.022054,-0.092832
"2018-06-07 01:14:08.837 +0000",1528334048.836633,0.596866,0.249917,0.984036,0.544592,-0.247323,-0.801405,0.000000,0.000000,0.000000,-1,0.105056,-0.384182,0.154889,-0.030401,-0.085288,-0.030794
"2018-06-07 01:14:08.847 +0000",1528334048.846707,0.593778,0.250349,0.983886,0.542055,-0.247742,-0.802994,0.000000,0.000000,0.000000,-1,0.026622,-0.270512,-0.040368,-0.054613,-0.074416,0.054154
"2018-06-07 01:14:08.857 +0000",1528334048.856781,0.614692,0.238180,0.977332,0.560426,-0.235934,-0.793887,0.000000,0.000000,0.000000,-1,0.028554,0.089132,-0.199598,0.014403,-0.036847,0.083972
"2018-06-07 01:14:08.867 +0000",1528334048.866855,0.619394,0.237602,0.975043,0.564232,-0.235372,-0.791355,0.000000,0.000000,0.000000,-1,0.098524,0.505377,-0.198547,0.010597,-0.037409,0.081439
"2018-06-07 01:14:08.877 +0000",1528334048.876929,0.626268,0.237911,0.974044,0.569615,-0.235673,-0.787399,0.000000,0.000000,0.000000,-1,0.065360,0.685608,-0.005406,0.324245,-0.117538,0.091109
"2018-06-07 01:14:08.887 +0000",1528334048.887003,0.633391,0.238727,0.975659,0.575096,-0.236466,-0.783166,0.000000,0.000000,0.000000,-1,-0.068948,0.776423,0.239337,0.300286,-0.126449,0.043618
"2018-06-07 01:14:08.897 +0000",1528334048.897077,0.659633,0.229977,0.976478,0.596692,-0.227955,-0.769412,0.000000,0.000000,0.000000,-1,-0.292758,0.858080,0.514376,0.158404,-0.191372,0.037356
"2018-06-07 01:14:08.907 +0000",1528334048.907151,0.665390,0.230560,0.983820,0.601030,-0.228522,-0.765859,0.000000,0.000000,0.000000,-1,-0.410857,0.683962,0.595889,-0.070375,-0.125207,-0.034403
"2018-06-07 01:14:08.917 +0000",1528334048.917225,0.669388,0.230482,0.990424,0.604097,-0.228447,-0.763464,0.000000,0.000000,0.000000,-1,-0.386482,0.510086,0.452267,-0.280443,-0.019966,-0.114252
"2018-06-07 01:14:08.927 +0000",1528334048.927299,0.673558,0.229813,0.994541,0.607371,-0.227795,-0.761058,0.000000,0.000000,0.000000,-1,-0.264818,0.527950,0.199264,-0.300090,-0.004489,-0.106679
"2018-06-07 01:14:08.937 +0000",1528334048.937373,0.695427,0.220372,0.992283,0.625218,-0.218593,-0.749212,0.000000,0.000000,0.000000,-1,-0.107909,0.696130,-0.011433,-0.272511,-0.032796,-0.120829
"2018-06-07 01:14:08.947 +0000",1528334048.947447,0.704867,0.220380,0.991427,0.632262,-0.218600,-0.743275,0.000000,0.000000,0.000000,-1,0.107603,0.994484,-0.073446,-0.208830,-0.067151,-0.142986
"2018-06-07 01:14:08.958 +0000",1528334048.957520,0.717449,0.221642,0.988858,0.641381,-0.219832,-0.735053,0.000000,0.000000,0.000000,-1,0.299898,1.252076,-0.116163,-0.171517,-0.046586,-0.141885
"2018-06-07 01:14:08.968 +0000",1528334048.967594,0.731368,0.223460,0.985579,0.651283,-0.221605,-0.725756,0.000000,0.000000,0.000000,-1,0.345068,1.298335,-0.122585,-0.109672,-0.056609,-0.063795
"2018-06-07 01:14:08.978 +0000",1528334048.977668,0.757200,0.218449,0.978711,0.670565,-0.216715,-0.709490,0.000000,0.000000,0.000000,-1,0.356461,1.011088,-0.203045,-0.163439,-0.057210,0.020434
"2018-06-07 01:14:08.988 +0000",1528334048.987741,0.765565,0.219563,0.974794,0.676309,-0.217803,-0.703681,0.000000,0.000000,0.000000,-1,0.332481,0.666239,-0.183556,-0.167459,-0.050935,0.042259
"2018-06-07 01:14:08.998 +0000",1528334048.997817,0.771505,0.221618,0.972202,0.680163,-0.219808,-0.699330,0.000000,0.000000,0.000000,-1,0.317395,0.514944,0.021487,0.002119,-0.061900,0.053379
"2018-06-07 01:14:09.008 +0000",1528334049.007891,0.777384,0.224882,0.971808,0.683756,-0.222991,-0.694804,0.000000,0.000000,0.000000,-1,0.229416,0.600457,0.252125,0.167761,-0.076585,0.063868
"2018-06-07 01:14:09.018 +0000",1528334049.017965,0.795720,0.223869,0.970692,0.696541,-0.222004,-0.682308,0.000000,0.000000,0.000000,-1,0.111577,0.534645,0.423231,0.129707,-0.148220,0.071178
"2018-06-07 01:14:09.028 +0000",1528334049.028039,0.798707,0.227446,0.974147,0.698003,-0.225490,-0.679666,0.000000,0.000000,0.000000,-1,-0.029587,0.316553,0.504669,0.072154,-0.179951,0.025903
"2018-06-07 01:14:09.038 +0000",1528334049.038113,0.799469,0.230282,0.979237,0.698059,-0.228253,-0.678685,0.000000,0.000000,0.000000,-1,-0.194741,0.164385,0.556235,0.053848,-0.189167,0.029210
"2018-06-07 01:14:09.048 +0000",1528334049.048187,0.799619,0.232695,0.985332,0.697764,-0.230601,-0.678195,0.000000,0.000000,0.000000,-1,-0.268510,0.160751,0.588663,0.037115,-0.178915,0.032580
"2018-06-07 01:14:09.058 +0000",1528334049.058261,0.811628,0.230920,0.988728,0.706153,-0.228873,-0.670048,0.000000,0.000000,0.000000,-1,-0.231770,0.149858,0.592850,-0.019096,-0.205972,-0.013592
"2018-06-07 01:14:09.068 +0000",1528334049.068335,0.810532,0.235193,0.993895,0.704703,-0.233031,-0.670141,0.000000,0.000000,0.000000,-1,0.009264,-0.051863,0.688519,-0.000846,-0.302004,-0.197092
"2018-06-07 01:14:09.078 +0000",1528334049.078409,0.806197,0.245501,0.996702,0.700021,-0.243043,-0.671491,0.000000,0.000000,0.000000,-1,0.729762,-0.496948,1.021176,0.150336,-0.559493,-0.548465
"2018-06-07 01:14:09.088 +0000",1528334049.088483,0.799393,0.265540,0.994409,0.691805,-0.262430,-0.672708,0.000000,0.000000,0.000000,-1,1.783026,-0.731454,1.352585,0.357222,-0.749838,-1.025458
"2018-06-07 01:14:09.099 +0000",1528334049.098557,0.808278,0.288519,0.986368,0.693210,-0.284533,-0.662193,0.000000,0.000000,0.000000,-1,2.114216,-0.258113,1.524231,0.476849,-0.383192,-0.796196
"2018-06-07 01:14:09.109 +0000",1528334049.108631,0.809351,0.311842,0.984134,0.688929,-0.306812,-0.656691,0.000000,0.000000,0.000000,-1,1.546835,0.040046,1.513490,0.347097,-0.261395,-0.153902
"2018-06-07 01:14:09.119 +0000",1528334049.118705,0.804379,0.329043,0.988543,0.681752,-0.323137,-0.656350,0.000000,0.000000,0.000000,-1,0.683646,-0.500438,1.555844,0.135631,-0.306959,0.419701
"2018-06-07 01:14:09.129 +0000",1528334049.128778,0.792198,0.345749,1.000066,0.669769,-0.338902,-0.660722,0.000000,0.000000,0.000000,-1,0.317633,-0.918619,2.082532,0.181427,-0.023327,0.412370
"2018-06-07 01:14:09.139 +0000",1528334049.138853,0.787512,0.362932,1.011609,0.662441,-0.355017,-0.659646,0.000000,0.000000,0.000000,-1,0.070004,-1.180050,2.218946,-0.110775,0.220144,0.268930
"2018-06-07 01:14:09.149 +0000",1528334049.148927,0.769301,0.376380,1.028341,0.646939,-0.367556,-0.668110,0.000000,0.000000,0.000000,-1,-0.198028,-1.197330,1.973187,-0.710904,0.265689,0.237156
"2018-06-07 01:14:09.159 +0000",1528334049.159001,0.752074,0.386633,1.044321,0.632726,-0.377072,-0.676367,0.000000,0.000000,0.000000,-1,-0.275890,-1.103116,1.705803,-0.960974,0.427258,0.126944
"2018-06-07 01:14:09.169 +0000",1528334049.169075,0.735225,0.395715,1.057072,0.618919,-0.385468,-0.684363,0.000000,0.000000,0.000000,-1,-0.058983,-1.230678,1.377939,-0.931602,0.483551,-0.013726
"2018-06-07 01:14:09.179 +0000",1528334049.179149,0.728537,0.403671,1.060716,0.612266,-0.392797,-0.686177,0.000000,0.000000,0.000000,-1,0.420398,-1.231260,1.048768,-0.879692,0.410390,-0.068171
"2018-06-07 01:14:09.189 +0000",1528334049.189223,0.716953,0.414782,1.062335,0.601372,-0.402990,-0.689891,0.000000,0.000000,0.000000,-1,0.817311,-1.042354,0.766590,-0.696251,0.396505,-0.086354
"2018-06-07 01:14:09.199 +0000",1528334049.199296,0.708230,0.425051,1.059820,0.592608,-0.412367,-0.691931,0.000000,0.000000,0.000000,-1,0.921987,-0.939492,0.390173,-0.531084,0.263091,-0.080255
"2018-06-07 01:14:09.209 +0000",1528334049.209371,0.702445,0.431197,1.053705,0.586946,-0.417958,-0.693400,0.000000,0.000000,0.000000,-1,0.793910,-0.783753,-0.184550,-0.563234,0.179845,0.038920
"2018-06-07 01:14:09.219 +0000",1528334049.219445,0.706443,0.430548,1.039893,0.589890,-0.417369,-0.691254,0.000000,0.000000,0.000000,-1,0.738799,-0.725295,-0.811355,-0.549073,0.136821,0.027634
"2018-06-07 01:14:09.230 +0000",1528334049.229519,0.703315,0.429365,1.025256,0.588044,-0.416293,-0.693472,0.000000,0.000000,0.000000,-1,0.791022,-0.978406,-1.152115,-0.278642,-0.046185,-0.087855
"2018-06-07 01:14:09.240 +0000",1528334049.239593,0.701172,0.426649,1.008071,0.587284,-0.413822,-0.695592,0.000000,0.000000,0.000000,-1,0.776258,-0.835647,-1.435636,0.001080,-0.173595,-0.199107
"2018-06-07 01:14:09.250 +0000",1528334049.249667,0.705453,0.420734,0.989669,0.591833,-0.408430,-0.694923,0.000000,0.000000,0.000000,-1,0.573930,-0.141275,-1.708518,-0.003469,-0.178987,-0.199777
"2018-06-07 01:14:09.260 +0000",1528334049.259741,0.721430,0.412224,0.969268,0.605133,-0.400648,-0.687964,0.000000,0.000000,0.000000,-1,0.435836,0.278731,-1.695148,0.110702,-0.229388,-0.035639
"2018-06-07 01:14:09.270 +0000",1528334049.269814,0.730736,0.404542,0.953143,0.613545,-0.393598,-0.684574,0.000000,0.000000,0.000000,-1,0.407750,0.270541,-1.592921,0.180324,-0.133273,-0.005459
"2018-06-07 01:14:09.280 +0000",1528334049.279889,0.738930,0.397129,0.936429,0.621082,-0.386772,-0.681662,0.000000,0.000000,0.000000,-1,0.495427,0.115093,-1.638751,0.014706,-0.139626,-0.027978
"2018-06-07 01:14:09.290 +0000",1528334049.289963,0.744076,0.389435,0.920194,0.626579,-0.379665,-0.680626,0.000000,0.000000,0.000000,-1,0.413556,-0.172870,-1.610359,-0.051505,-0.042194,-0.012931
"2018-06-07 01:14:09.300 +0000",1528334049.300037,0.753733,0.381195,0.901353,0.635242,-0.372030,-0.676802,0.000000,0.000000,0.000000,-1,0.437461,-0.364577,-1.690569,-0.158588,0.046682,0.010633
"2018-06-07 01:14:09.310 +0000",1528334049.310111,0.754286,0.373155,0.882857,0.637643,-0.364555,-0.678608,0.000000,0.000000,0.000000,-1,0.644755,-0.709198,-1.834031,-0.263681,-0.026634,-0.130687
"2018-06-07 01:14:09.320 +0000",1528334049.320185,0.753029,0.365388,0.861164,0.638707,-0.357312,-0.681455,0.000000,0.000000,0.000000,-1,0.864988,-0.930587,-2.036325,-0.304173,-0.014499,-0.153964
"2018-06-07 01:14:09.330 +0000",1528334049.330259,0.754660,0.357548,0.836530,0.641717,-0.349979,-0.682432,0.000000,0.000000,0.000000,-1,1.051604,-0.584231,-2.307883,-0.336388,-0.042584,-0.109255
"2018-06-07 01:14:09.340 +0000",1528334049.340333,0.763666,0.349530,0.807698,0.649757,-0.342456,-0.678630,0.000000,0.000000,0.000000,-1,1.106757,-0.683734,-2.365308,-0.330482,-0.026456,-0.154011
"2018-06-07 01:14:09.350 +0000",1528334049.350407,0.763256,0.341891,0.780760,0.651268,-0.335270,-0.680767,0.000000,0.000000,0.000000,-1,1.237185,-1.061098,-2.343040,-0.130882,0.169040,-0.135792
"2018-06-07 01:14:09.360 +0000",1528334049.360481,0.758839,0.335653,0.750815,0.649681,-0.329385,-0.685142,0.000000,0.000000,0.000000,-1,1.575089,-1.553431,-2.516274,-0.309013,0.116220,-0.307122
"2018-06-07 01:14:09.371 +0000",1528334049.370554,0.752105,0.329096,0.717717,0.646514,-0.323188,-0.691063,0.000000,0.000000,0.000000,-1,1.641203,-1.750931,-2.757945,-0.335006,0.099403,-0.217293
"2018-06-07 01:14:09.381 +0000",1528334049.380629,0.753029,0.321436,0.684459,0.648826,-0.315930,-0.692251,0.000000,0.000000,0.000000,-1,1.289508,-1.383349,-2.688304,-0.109291,-0.049930,0.157126
"2018-06-07 01:14:09.391 +0000",1528334049.390703,0.752324,0.309776,0.659256,0.650812,-0.304845,-0.695351,0.000000,0.000000,0.000000,-1,0.591807,-0.663880,-2.467333,0.133750,-0.236689,0.362618
"2018-06-07 01:14:09.401 +0000",1528334049.400777,0.755561,0.294558,0.640161,0.656164,-0.290317,-0.696537,0.000000,0.000000,0.000000,-1,0.016692,-0.108414,-2.323491,0.206263,-0.287701,0.244831
"2018-06-07 01:14:09.411 +0000",1528334049.410851,0.763371,0.277794,0.624331,0.664856,-0.274235,-0.694810,0.000000,0.000000,0.000000,-1,-0.207431,0.482175,-2.207241,0.131439,-0.278469,0.003373
"2018-06-07 01:14:09.421 +0000",1528334049.420925,0.781829,0.262816,0.608087,0.680385,-0.259801,-0.685258,0.000000,0.000000,0.000000,-1,-0.184306,0.857308,-2.119076,0.022084,-0.245020,-0.090132
"2018-06-07 01:14:09.431 +0000",1528334049.430999,0.792398,0.247056,0.593540,0.690419,-0.244551,-0.680820,0.000000,0.000000,0.000000,-1,-0.090732,0.574249,-2.096449,-0.104680,-0.105257,-0.141781
"2018-06-07 01:14:09.441 +0000",1528334049.441072,0.797399,0.230275,0.578378,0.696654,-0.228246,-0.680130,0.000000,0.000000,0.000000,-1,-0.149806,0.008348,-2.266836,-0.257185,-0.000911,-0.071884
"2018-06-07 01:14:09.451 +0000",1528334049.451147,0.799796,0.210553,0.562675,0.701374,-0.209001,-0.681463,0.000000,0.000000,0.000000,-1,-0.319941,-0.094212,-2.530278,-0.300709,-0.017074,0.108221
"2018-06-07 01:14:09.461 +0000",1528334049.461222,0.809273,0.188541,0.545493,0.710959,-0.187426,-0.677796,0.000000,0.000000,0.000000,-1,-0.505150,0.141273,-2.787324,-0.257071,-0.093488,0.212785
"2018-06-07 01:14:09.471 +0000",1528334049.471296,0.817492,0.162359,0.530070,0.719839,-0.161646,-0.675057,0.000000,0.000000,0.000000,-1,-0.764807,0.724219,-2.966817,-0.142187,-0.112523,0.229225
"2018-06-07 01:14:09.481 +0000",1528334049.481369,0.834689,0.131701,0.516586,0.734670,-0.131321,-0.665593,0.000000,0.000000,0.000000,-1,-1.218823,1.785476,-3.199332,-0.172185,-0.152310,0.289891
"2018-06-07 01:14:09.491 +0000",1528334049.491444,0.860735,0.093969,0.505377,0.754976,-0.093831,-0.649004,0.000000,0.000000,0.000000,-1,-1.802890,2.654313,-3.706399,-0.442186,-0.173747,0.341677
"2018-06-07 01:14:09.502 +0000",1528334049.501518,0.900511,0.037721,0.486967,0.783087,-0.037712,-0.620767,0.000000,0.000000,0.000000,-1,-2.268031,3.813907,-6.195305,-1.395895,-0.578148,0.155908
"2018-06-07 01:14:09.512 +0000",1528334049.511592,0.949499,-0.034151,0.461366,0.812649,0.034144,-0.581751,0.000000,0.000000,0.000000,-1,-2.189366,5.204182,-7.310112,-1.525555,-0.514033,-0.469076
"2018-06-07 01:14:09.522 +0000",1528334049.521666,0.988263,-0.093574,0.436253,0.831418,0.093438,-0.547734,0.000000,0.000000,0.000000,-1,-0.780115,2.757877,-5.738182,0.593372,0.380439,-1.064754
"2018-06-07 01:14:09.532 +0000",1528334049.531740,0.978229,-0.119384,0.412967,0.823605,0.119101,-0.554516,0.000000,0.000000,0.000000,-1,0.705990,-1.450091,-2.604337,1.921619,0.409738,-0.881549
"2018-06-07 01:14:09.542 +0000",1528334049.541814,0.966273,-0.126748,0.405748,0.816172,0.126409,-0.563810,0.000000,0.000000,0.000000,-1,-0.053283,-0.664438,-0.665228,1.816762,-0.099127,0.441602
"2018-06-07 01:14:09.552 +0000",1528334049.551888,0.973100,-0.131699,0.404036,0.819475,0.131318,-0.557866,0.000000,0.000000,0.000000,-1,-0.041264,1.022278,-0.523742,0.387434,-0.361955,0.311238
"2018-06-07 01:14:09.562 +0000",1528334049.561962,0.983851,-0.133424,0.396692,0.825235,0.133029,-0.548897,0.000000,0.000000,0.000000,-1,0.667506,1.119692,-0.508947,-0.198328,-0.303729,-0.246971
"2018-06-07 01:14:09.572 +0000",1528334049.572036,0.992300,-0.129642,0.387875,0.830259,0.129279,-0.542177,0.000000,0.000000,0.000000,-1,0.996972,0.901232,-0.027372,-0.050565,-0.057349,-0.211012
"2018-06-07 01:14:09.582 +0000",1528334049.582109,1.000388,-0.120493,0.380460,0.835577,0.120202,-0.536061,0.000000,0.000000,0.000000,-1,1.127481,0.931301,0.481197,-0.044928,0.048881,0.025868
"2018-06-07 01:14:09.592 +0000",1528334049.592184,1.012434,-0.108184,0.374851,0.843165,0.107973,-0.526700,0.000000,0.000000,0.000000,-1,1.108784,1.392044,0.807424,-0.072642,-0.104174,0.112576
"2018-06-07 01:14:09.602 +0000",1528334049.602258,1.029518,-0.095097,0.370625,0.853178,0.094953,-0.512904,0.000000,0.000000,0.000000,-1,1.014188,1.842589,0.897155,-0.224683,-0.124571,-0.000798
"2018-06-07 01:14:09.612 +0000",1528334049.612332,1.049245,-0.082744,0.366014,0.864080,0.082650,-0.496521,0.000000,0.000000,0.000000,-1,1.022123,2.016467,0.799759,-0.280432,0.092582,-0.256775
"2018-06-07 01:14:09.622 +0000",1528334049.622406,1.068657,-0.070912,0.360955,0.874351,0.070853,-0.480092,0.000000,0.000000,0.000000,-1,0.998158,1.953900,0.782421,-0.054710,0.107690,-0.369731
"2018-06-07 01:14:09.632 +0000",1528334049.632480,1.088916,-0.059174,0.357451,0.884573,0.059140,-0.462634,0.000000,0.000000,0.000000,-1,0.793306,2.091129,0.906989,0.129892,-0.016904,-0.202130
"2018-06-07 01:14:09.643 +0000",1528334049.642554,1.109298,-0.044815,0.357715,0.894486,0.044800,-0.444843,0.000000,0.000000,0.000000,-1,0.577435,1.936937,1.408285,0.161040,-0.014573,-0.065258
"2018-06-07 01:14:09.653 +0000",1528334049.652627,1.121073,-0.030749,0.359079,0.900141,0.030744,-0.434511,0.000000,0.000000,0.000000,-1,0.455125,0.867178,1.191400,0.023016,-0.019651,-0.182555
"2018-06-07 01:14:09.663 +0000",1528334049.662702,1.127244,-0.021651,0.359673,0.903021,0.021650,-0.429049,0.000000,0.000000,0.000000,-1,0.202117,-0.293162,0.498040,-0.358617,-0.225202,-0.159528
"2018-06-07 01:14:09.673 +0000",1528334049.672776,1.118919,-0.021468,0.360242,0.899421,0.021466,-0.436554,0.000000,0.000000,0.000000,-1,-0.118214,-0.991916,-0.102394,-0.575660,-0.288907,-0.095123
"2018-06-07 01:14:09.683 +0000",1528334049.682850,1.105429,-0.025929,0.361865,0.893356,0.025926,-0.448599,0.000000,0.000000,0.000000,-1,-0.418391,-1.447295,-0.348278,-0.495407,-0.263887,-0.092401
"2018-06-07 01:14:09.693 +0000",1528334049.692924,1.091424,-0.031277,0.365953,0.886850,0.031272,-0.460997,0.000000,0.000000,0.000000,-1,-0.651269,-1.363782,-0.260374,-0.231149,-0.138908,-0.000475
"2018-06-07 01:14:09.703 +0000",1528334049.702998,1.082567,-0.035218,0.371342,0.882617,0.035211,-0.468772,0.000000,0.000000,0.000000,-1,-0.688734,-1.354385,-0.169907,-0.039492,0.083106,-0.084970
"2018-06-07 01:14:09.713 +0000",1528334049.713072,1.069651,-0.038382,0.377156,0.876386,0.038373,-0.480076,0.000000,0.000000,0.000000,-1,-0.642355,-1.247676,0.069090,0.091417,-0.001660,-0.169872
"2018-06-07 01:14:09.723 +0000",1528334049.723145,1.061466,-0.039606,0.383630,0.872386,0.039596,-0.487210,0.000000,0.000000,0.000000,-1,-0.621006,-0.712586,0.231945,0.126347,-0.193252,-0.061618
"2018-06-07 01:14:09.733 +0000",1528334049.733220,1.055701,-0.040857,0.390004,0.869519,0.040846,-0.492207,0.000000,0.000000,0.000000,-1,-0.609141,-0.599254,0.177389,0.106189,-0.219755,-0.131115
"2018-06-07 01:14:09.743 +0000",1528334049.743294,1.054679,-0.042662,0.395805,0.868950,0.042649,-0.493058,0.000000,0.000000,0.000000,-1,-0.590487,-0.416443,0.050952,0.016472,-0.181061,-0.180755
"2018-06-07 01:14:09.753 +0000",1528334049.753368,1.052820,-0.045578,0.400968,0.867920,0.045562,-0.494609,0.000000,0.000000,0.000000,-1,-0.598643,-0.176893,-0.010720,-0.052459,-0.191070,-0.047917
"2018-06-07 01:14:09.763 +0000",1528334049.763442,1.049762,-0.049214,0.407004,0.866254,0.049194,-0.497175,0.000000,0.000000,0.000000,-1,-0.732839,-0.400094,-0.015364,-0.116208,-0.226639,-0.082217
"2018-06-07 01:14:09.774 +0000",1528334049.773516,1.044287,-0.052963,0.413022,0.863353,0.052938,-0.501814,0.000000,0.000000,0.000000,-1,-0.667505,-0.635939,-0.014049,-0.238887,-0.190633,-0.151385
"2018-06-07 01:14:09.784 +0000",1528334049.783590,1.039013,-0.054096,0.417303,0.860643,0.054070,-0.506329,0.000000,0.000000,0.000000,-1,-0.338565,-0.836492,0.123373,-0.163896,-0.153954,-0.209232
"2018-06-07 01:14:09.794 +0000",1528334049.793664,1.033649,-0.054638,0.419973,0.857889,0.054611,-0.510923,0.000000,0.000000,0.000000,-1,-0.237746,-0.428736,0.074849,-0.130197,-0.107055,-0.053194
"2018-06-07 01:14:09.804 +0000",1528334049.803738,1.031704,-0.054939,0.421897,0.856880,0.054911,-0.512582,0.000000,0.000000,0.000000,-1,-0.158198,-0.167261,0.078654,-0.120369,-0.135874,0.003915
"2018-06-07 01:14:09.814 +0000",1528334049.813812,1.029731,-0.054134,0.423643,0.855904,0.054107,-0.514295,0.000000,0.000000,0.000000,-1,-0.095946,-0.225719,0.185906,-0.105294,-0.155685,-0.095172
"2018-06-07 01:14:09.824 +0000",1528334049.823886,1.028010,-0.052161,0.425904,0.855108,0.052137,-0.515821,0.000000,0.000000,0.000000,-1,-0.091774,-0.151609,0.317341,-0.116415,-0.152266,-0.080081
"2018-06-07 01:14:09.834 +0000",1528334049.833960,1.027548,-0.049151,0.428770,0.855000,0.049132,-0.516295,0.000000,0.000000,0.000000,-1,-0.086402,-0.035678,0.424154,-0.148335,-0.149351,-0.050188
"2018-06-07 01:14:09.844 +0000",1528334049.844034,1.027998,-0.045905,0.431993,0.855364,0.045889,-0.515989,0.000000,0.000000,0.000000,-1,-0.120208,0.062972,0.437427,-0.140673,-0.166845,-0.103578
"2018-06-07 01:14:09.854 +0000",1528334049.854108,1.029669,-0.043589,0.434237,0.856314,0.043576,-0.514613,0.000000,0.000000,0.000000,-1,-0.038976,0.180390,0.239663,-0.095694,-0.191510,-0.117970
"2018-06-07 01:14:09.864 +0000",1528334049.864182,1.034561,-0.043188,0.433329,0.858836,0.043175,-0.510426,0.000000,0.000000,0.000000,-1,0.148341,0.323937,-0.098101,-0.001689,-0.126702,-0.143474
"2018-06-07 01:14:09.874 +0000",1528334049.874256,1.038482,-0.043350,0.430382,0.860825,0.043337,-0.507052,0.000000,0.000000,0.000000,-1,0.267431,0.431027,-0.163676,0.067596,-0.190386,-0.104551
"2018-06-07 01:14:09.884 +0000",1528334049.884330,1.048999,-0.016844,0.427085,0.866801,0.016843,-0.498368,0.000000,0.000000,0.000000,-1,0.389300,0.496710,-0.038989,0.040761,-0.143262,-0.117843
"2018-06-07 01:14:09.894 +0000",1528334049.894403,1.032210,-0.004757,0.422877,0.858424,0.004757,-0.512916,0.000000,0.000000,0.000000,-1,0.470971,0.386963,0.007833,-0.048656,-0.067181,-0.161751
"2018-06-07 01:14:09.904 +0000",1528334049.904478,1.017999,0.007905,0.419068,0.851032,-0.007905,-0.525053,0.000000,0.000000,0.000000,-1,0.423891,0.348492,-0.011533,-0.095356,-0.015624,-0.128832
"2018-06-07 01:14:09.915 +0000",1528334049.914552,1.008219,0.019637,0.415958,0.845720,-0.019635,-0.533265,0.000000,0.000000,0.000000,-1,0.376453,0.372429,0.008007,-0.028581,-0.068667,-0.056258
"2018-06-07 01:14:09.925 +0000",1528334049.924627,0.998297,0.030033,0.413346,0.840170,-0.030028,-0.541490,0.000000,0.000000,0.000000,-1,0.377072,0.544635,0.042927,0.009241,-0.107362,-0.013167
"2018-06-07 01:14:09.935 +0000",1528334049.934700,0.992904,0.044796,0.410542,0.836775,-0.044781,-0.545711,0.000000,0.000000,0.000000,-1,0.433565,0.752255,0.046629,-0.010786,-0.096042,0.019222
"2018-06-07 01:14:09.945 +0000",1528334049.944775,0.990583,0.049541,0.407580,0.835319,-0.049521,-0.547529,0.000000,0.000000,0.000000,-1,0.418003,0.544731,0.047136,-0.041801,-0.056711,-0.076586
"2018-06-07 01:14:09.955 +0000",1528334049.954849,0.995309,0.060720,0.404967,0.837380,-0.060683,-0.543241,0.000000,0.000000,0.000000,-1,0.331748,0.299492,0.093949,-0.078378,-0.065614,-0.109012
"2018-06-07 01:14:09.965 +0000",1528334049.964922,0.995222,0.068103,0.403453,0.836934,-0.068050,-0.543055,0.000000,0.000000,0.000000,-1,0.264509,0.053267,0.126731,-0.130666,-0.175755,-0.095907
"2018-06-07 01:14:09.975 +0000",1528334049.974997,0.984745,0.068503,0.401300,0.831176,-0.068449,-0.551778,0.000000,0.000000,0.000000,-1,0.410613,-0.175248,0.004184,-0.154617,-0.259447,-0.089182
"2018-06-07 01:14:09.985 +0000",1528334049.985070,0.975242,0.067455,0.395926,0.825955,-0.067404,-0.559691,0.000000,0.000000,0.000000,-1,0.670480,-0.262680,-0.178449,-0.115170,-0.255594,-0.075593
"2018-06-07 01:14:09.995 +0000",1528334049.995144,0.973242,0.070642,0.388436,0.824652,-0.070583,-0.561219,0.000000,0.000000,0.000000,-1,0.769378,-0.031664,-0.228559,-0.033743,-0.146214,-0.014953
"2018-06-07 01:14:10.005 +0000",1528334050.005219,0.977880,0.076607,0.380530,0.826882,-0.076532,-0.557143,0.000000,0.000000,0.000000,-1,0.812741,0.385416,-0.182268,0.044700,-0.027594,0.044127
"2018-06-07 01:14:10.015 +0000",1528334050.015293,0.986280,0.082914,0.372747,0.831113,-0.082819,-0.549900,0.000000,0.000000,0.000000,-1,0.813090,0.733208,-0.133929,0.060458,-0.015112,0.057072
"2018-06-07 01:14:10.025 +0000",1528334050.025367,0.993273,0.087135,0.366002,0.834638,-0.087024,-0.543879,0.000000,0.000000,0.000000,-1,0.771227,1.114823,-0.063881,-0.009061,-0.092770,0.106470
"2018-06-07 01:14:10.035 +0000",1528334050.035440,1.001155,0.091183,0.359877,0.838595,-0.091057,-0.537089,0.000000,0.000000,0.000000,-1,0.682496,1.273036,-0.154648,-0.148928,-0.128441,0.091106
"2018-06-07 01:14:10.046 +0000",1528334050.045515,1.012499,0.090509,0.352374,0.844686,-0.090385,-0.527574,0.000000,0.000000,0.000000,-1,0.568148,0.979059,-0.546776,-0.200597,0.047478,-0.068800
"2018-06-07 01:14:10.056 +0000",1528334050.055588,1.020104,0.087912,0.344773,0.848871,-0.087799,-0.521256,0.000000,0.000000,0.000000,-1,0.481822,0.577291,-0.607983,0.067923,0.026413,-0.104995
"2018-06-07 01:14:10.066 +0000",1528334050.065662,1.025234,0.085473,0.338402,0.851714,-0.085369,-0.517004,0.000000,0.000000,0.000000,-1,0.384499,0.411892,-0.497450,0.182847,-0.112324,-0.087321
"2018-06-07 01:14:10.076 +0000",1528334050.075737,1.030461,0.084013,0.333565,0.854511,-0.083914,-0.512609,0.000000,0.000000,0.000000,-1,0.329525,0.515314,-0.327071,0.112103,-0.155069,0.004888
"2018-06-07 01:14:10.086 +0000",1528334050.085811,1.037576,0.084366,0.329543,0.858111,-0.084266,-0.506500,0.000000,0.000000,0.000000,-1,0.374955,0.730812,-0.114646,0.053891,-0.138116,0.019577
"2018-06-07 01:14:10.096 +0000",1528334050.095884,1.045751,0.086771,0.325138,0.862045,-0.086662,-0.499366,0.000000,0.000000,0.000000,-1,0.533647,0.768073,0.005570,-0.001937,-0.081673,-0.026238
"2018-06-07 01:14:10.106 +0000",1528334050.105958,1.053321,0.089456,0.320225,0.865595,-0.089337,-0.492709,0.000000,0.000000,0.000000,-1,0.548655,0.643070,-0.018492,-0.038263,0.007031,-0.071438
"2018-06-07 01:14:10.116 +0000",1528334050.116033,1.058414,0.091473,0.315716,0.867934,-0.091345,-0.488205,0.000000,0.000000,0.000000,-1,0.462980,0.404739,-0.048031,-0.008849,-0.016580,-0.040451
"2018-06-07 01:14:10.126 +0000",1528334050.126107,1.061720,0.092788,0.311949,0.869438,-0.092655,-0.485274,0.000000,0.000000,0.000000,-1,0.360400,0.260763,-0.076182,0.008721,-0.034847,-0.033769
"2018-06-07 01:14:10.136 +0000",1528334050.136180,1.061110,0.091855,0.309398,0.869217,-0.091726,-0.485846,0.000000,0.000000,0.000000,-1,0.207648,0.120077,-0.136478,0.006760,-0.036418,-0.035852
"2018-06-07 01:14:10.146 +0000",1528334050.146255,1.061749,0.089918,0.307562,0.869681,-0.089797,-0.485376,0.000000,0.000000,0.000000,-1,0.013670,0.000574,-0.302030,0.002390,0.020309,-0.037985
"2018-06-07 01:14:10.156 +0000",1528334050.156328,1.061536,0.085058,0.306190,0.869948,-0.084956,-0.485768,0.000000,0.000000,0.000000,-1,-0.151400,-0.044961,-0.548108,-0.008574,0.145304,-0.011333
"2018-06-07 01:14:10.166 +0000",1528334050.166402,1.062290,0.078783,0.304190,0.870763,-0.078701,-0.485362,0.000000,0.000000,0.000000,-1,-0.097267,0.121348,-0.642405,0.049205,0.091763,-0.006444
"2018-06-07 01:14:10.176 +0000",1528334050.176476,1.066083,0.075252,0.300926,0.872835,-0.075181,-0.482187,0.000000,0.000000,0.000000,-1,0.192413,0.425131,-0.378651,0.119032,-0.133788,0.000681
"2018-06-07 01:14:10.187 +0000",1528334050.186551,1.072118,0.076130,0.297053,0.875671,-0.076057,-0.476879,0.000000,0.000000,0.000000,-1,0.419613,0.563712,-0.028108,0.074830,-0.279488,-0.021854
"2018-06-07 01:14:10.197 +0000",1528334050.196625,1.077184,0.079314,0.293621,0.877858,-0.079230,-0.472320,0.000000,0.000000,0.000000,-1,0.441409,0.434551,0.158628,-0.002354,-0.318963,-0.052506
"2018-06-07 01:14:10.207 +0000",1528334050.206698,1.080316,0.083623,0.291451,0.879023,-0.083525,-0.469403,0.000000,0.000000,0.000000,-1,0.383616,0.264659,0.319613,0.034902,-0.314638,-0.029864
"2018-06-07 01:14:10.217 +0000",1528334050.216773,1.083718,0.089175,0.289989,0.880192,-0.089057,-0.466186,0.000000,0.000000,0.000000,-1,0.386770,0.347571,0.445698,0.056057,-0.288369,0.006851
"2018-06-07 01:14:10.227 +0000",1528334050.226846,1.087604,0.095866,0.289202,0.881449,-0.095719,-0.462475,0.000000,0.000000,0.000000,-1,0.362590,0.345820,0.585582,0.074361,-0.186843,-0.006779
"2018-06-07 01:14:10.237 +0000",1528334050.236920,1.090152,0.102856,0.290245,0.882010,-0.102675,-0.459906,0.000000,0.000000,0.000000,-1,0.176080,0.229648,0.678177,0.039712,-0.175737,0.049354
"2018-06-07 01:14:10.247 +0000",1528334050.246994,1.090744,0.108293,0.293276,0.881774,-0.108082,-0.459120,0.000000,0.000000,0.000000,-1,-0.082419,0.037229,0.580325,-0.111113,-0.164425,0.086180
"2018-06-07 01:14:10.257 +0000",1528334050.257069,1.088514,0.111126,0.297329,0.880473,-0.110897,-0.460941,0.000000,0.000000,0.000000,-1,-0.259247,-0.266559,0.392684,-0.197566,-0.161991,0.026630
"2018-06-07 01:14:10.267 +0000",1528334050.267143,1.083261,0.111819,0.301846,0.877972,-0.111586,-0.465524,0.000000,0.000000,0.000000,-1,-0.395250,-0.554933,0.221129,-0.118160,-0.065843,-0.142692
"2018-06-07 01:14:10.277 +0000",1528334050.277216,1.075672,0.110513,0.306331,0.874541,-0.110288,-0.472242,0.000000,0.000000,0.000000,-1,-0.471500,-0.739959,0.051889,-0.022567,-0.054247,-0.167926
"2018-06-07 01:14:10.287 +0000",1528334050.287291,1.066490,0.107163,0.311348,0.870487,-0.106958,-0.480428,0.000000,0.000000,0.000000,-1,-0.641504,-0.890250,-0.085841,0.016171,-0.093589,-0.074443
"2018-06-07 01:14:10.297 +0000",1528334050.297364,1.057238,0.102232,0.316618,0.866454,-0.102054,-0.488714,0.000000,0.000000,0.000000,-1,-0.687883,-0.825093,-0.209245,0.014650,-0.082074,0.003088
"2018-06-07 01:14:10.307 +0000",1528334050.307438,1.050834,0.096040,0.320001,0.863838,-0.095893,-0.494557,0.000000,0.000000,0.000000,-1,-0.567715,-0.552662,-0.435688,-0.045616,0.029700,-0.001399
"2018-06-07 01:14:10.318 +0000",1528334050.317513,1.047291,0.088409,0.320924,0.862689,-0.088294,-0.497966,0.000000,0.000000,0.000000,-1,-0.405479,-0.266903,-0.670795,-0.083240,0.023261,0.019465
"2018-06-07 01:14:10.328 +0000",1528334050.327587,1.046789,0.080445,0.318332,0.863020,-0.080359,-0.498735,0.000000,0.000000,0.000000,-1,-0.091330,-0.016079,-0.851493,-0.095106,0.016546,0.043871
"2018-06-07 01:14:10.338 +0000",1528334050.337661,1.047456,0.073307,0.312453,0.863828,-0.073241,-0.498433,0.000000,0.000000,0.000000,-1,0.229455,0.012507,-0.911305,-0.080991,-0.005845,0.080037
"2018-06-07 01:14:10.348 +0000",1528334050.347734,1.045708,0.067343,0.305004,0.863317,-0.067292,-0.500153,0.000000,0.000000,0.000000,-1,0.350426,-0.369279,-0.887953,-0.033651,-0.157881,0.037064
"2018-06-07 01:14:10.358 +0000",1528334050.357809,1.037823,0.060702,0.296142,0.859713,-0.060664,-0.507160,0.000000,0.000000,0.000000,-1,0.461611,-0.989566,-1.065342,-0.052065,-0.130177,-0.092358
"2018-06-07 01:14:10.368 +0000",1528334050.367883,1.024962,0.056312,0.284526,0.853339,-0.056282,-0.518308,0.000000,0.000000,0.000000,-1,0.650698,-1.416232,-1.289675,-0.048651,0.017784,-0.086840
"2018-06-07 01:14:10.378 +0000",1528334050.377957,1.009417,0.048390,0.270907,0.845530,-0.048371,-0.531730,0.000000,0.000000,0.000000,-1,0.733639,-1.660377,-1.391685,0.016714,-0.106445,-0.015099
"2018-06-07 01:14:10.388 +0000",1528334050.388031,0.995459,0.040433,0.258254,0.838322,-0.040422,-0.543673,0.000000,0.000000,0.000000,-1,0.583614,-1.320788,-1.319361,0.034969,-0.299376,0.059328
"2018-06-07 01:14:10.398 +0000",1528334050.398106,0.988125,0.032018,0.246757,0.834567,-0.032012,-0.549974,0.000000,0.000000,0.000000,-1,0.477044,-0.608527,-1.343937,-0.036044,-0.245118,0.096986
"2018-06-07 01:14:10.408 +0000",1528334050.408180,0.984534,0.022130,0.234856,0.832810,-0.022128,-0.553115,0.000000,0.000000,0.000000,-1,0.435053,-0.362030,-1.514151,-0.129868,-0.071179,0.010085
"2018-06-07 01:14:10.418 +0000",1528334050.418253,0.979210,0.010864,0.221896,0.830007,-0.010863,-0.557645,0.000000,0.000000,0.000000,-1,0.447070,-0.653329,-1.675297,-0.181753,-0.051392,-0.086810
"2018-06-07 01:14:10.428 +0000",1528334050.428328,0.967668,-0.001453,0.208232,0.823564,0.001453,-0.567220,0.000000,0.000000,0.000000,-1,0.409103,-1.373982,-1.839729,-0.214357,-0.197345,-0.071497
"2018-06-07 01:14:10.438 +0000",1528334050.438401,0.943301,-0.019392,0.194068,0.809348,0.019391,-0.587008,0.000000,0.000000,0.000000,-1,-0.015383,-2.800745,-2.464630,-0.424719,-0.509183,0.072299
"2018-06-07 01:14:10.448 +0000",1528334050.448475,0.904285,-0.047274,0.179532,0.785105,0.047257,-0.617556,0.000000,0.000000,0.000000,-1,-0.662661,-4.158427,-3.218973,-0.875162,-0.995087,0.113452
"2018-06-07 01:14:10.459 +0000",1528334050.458549,0.851029,-0.079895,0.159943,0.749560,0.079810,-0.657106,0.000000,0.000000,0.000000,-1,-0.467128,-5.437211,-3.904024,-0.923434,-0.402106,-0.156035
"2018-06-07 01:14:10.469 +0000",1528334050.468624,0.798423,-0.105931,0.129300,0.712241,0.105733,-0.693925,0.000000,0.000000,0.000000,-1,0.836569,-4.492756,-3.913943,-0.314582,0.465449,-0.305709
"2018-06-07 01:14:10.479 +0000",1528334050.478698,0.770057,-0.116139,0.091921,0.691486,0.115878,-0.713034,0.000000,0.000000,0.000000,-1,2.140688,-1.733804,-3.108624,0.533093,0.723859,-0.220041
"2018-06-07 01:14:10.489 +0000",1528334050.488771,0.756491,-0.117822,0.059509,0.681615,0.117550,-0.722206,0.000000,0.000000,0.000000,-1,1.973397,-0.928962,-2.213114,0.861384,0.299778,-0.104057
"2018-06-07 01:14:10.499 +0000",1528334050.498846,0.741610,-0.117288,0.036123,0.670835,0.117020,-0.732316,0.000000,0.000000,0.000000,-1,1.514264,-1.292335,-1.466622,0.824664,0.094437,-0.114562
"2018-06-07 01:14:10.509 +0000",1528334050.508919,0.725190,-0.113336,0.019354,0.659022,0.113093,-0.743572,0.000000,0.000000,0.000000,-1,1.371997,-1.500670,-0.832272,0.619817,0.273030,0.029720
"2018-06-07 01:14:10.519 +0000",1528334050.518993,0.706351,-0.105775,0.005153,0.645434,0.105578,-0.756483,0.000000,0.000000,0.000000,-1,1.544048,-1.787018,-0.496822,0.252057,0.366453,-0.022234
"2018-06-07 01:14:10.529 +0000",1528334050.529068,0.684344,-0.095052,-0.009202,0.629311,0.094909,-0.771336,0.000000,0.000000,0.000000,-1,1.778880,-2.143566,-0.395135,-0.085564,0.199037,-0.104427
"2018-06-07 01:14:10.539 +0000",1528334050.539142,0.658245,-0.084021,-0.024005,0.609571,0.083923,-0.788276,0.000000,0.000000,0.000000,-1,1.719076,-2.536330,-0.491873,-0.266782,-0.095061,-0.071434
"2018-06-07 01:14:10.549 +0000",1528334050.549216,0.633317,-0.075478,-0.036423,0.590136,0.075406,-0.803774,0.000000,0.000000,0.000000,-1,1.295273,-2.274189,-0.456795,-0.205356,-0.413022,0.153475
"2018-06-07 01:14:10.559 +0000",1528334050.559289,0.614582,-0.070131,-0.044978,0.575199,0.070074,-0.815006,0.000000,0.000000,0.000000,-1,0.804349,-1.630532,-0.345158,-0.096073,-0.318411,0.303516
"2018-06-07 01:14:10.569 +0000",1528334050.569364,0.602290,-0.067448,-0.049276,0.565243,0.067397,-0.822166,0.000000,0.000000,0.000000,-1,0.349546,-1.057417,-0.141304,0.048649,-0.272551,0.256264
"2018-06-07 01:14:10.579 +0000",1528334050.579437,0.594840,-0.067101,-0.049717,0.559115,0.067050,-0.826374,0.000000,0.000000,0.000000,-1,-0.031245,-0.646385,0.018884,0.110456,-0.274127,0.147816
"2018-06-07 01:14:10.590 +0000",1528334050.589511,0.590839,-0.067748,-0.047283,0.555780,0.067696,-0.828568,0.000000,0.000000,0.000000,-1,-0.234702,-0.342591,0.214925,0.120398,-0.281395,0.045640
"2018-06-07 01:14:10.600 +0000",1528334050.599586,0.590333,-0.067343,-0.042522,0.555376,0.067292,-0.828872,0.000000,0.000000,0.000000,-1,-0.214024,-0.009963,0.490135,0.179670,-0.198670,-0.037309
"2018-06-07 01:14:10.610 +0000",1528334050.609660,0.591243,-0.063357,-0.034393,0.556275,0.063315,-0.828582,0.000000,0.000000,0.000000,-1,-0.082814,0.023211,1.043888,0.290679,-0.338598,-0.093796
"2018-06-07 01:14:10.620 +0000",1528334050.619733,0.590704,-0.053476,-0.021810,0.556149,0.053451,-0.829361,0.000000,0.000000,0.000000,-1,0.193577,-0.174306,1.732169,0.422320,-0.515929,-0.197540
"2018-06-07 01:14:10.630 +0000",1528334050.629807,0.589773,-0.039078,-0.007284,0.555748,0.039068,-0.830432,0.000000,0.000000,0.000000,-1,0.406525,-0.153041,2.038302,0.319710,-0.194448,-0.175442
"2018-06-07 01:14:10.640 +0000",1528334050.639882,0.590315,-0.024210,0.008701,0.556459,0.024208,-0.830522,0.000000,0.000000,0.000000,-1,0.288877,0.070114,2.148937,0.166655,-0.061134,0.043443
"2018-06-07 01:14:10.650 +0000",1528334050.649956,0.593698,-0.011390,0.026944,0.559394,0.011389,-0.828823,0.000000,0.000000,0.000000,-1,-0.038904,0.382713,2.257085,0.019219,-0.177680,0.259808
"2018-06-07 01:14:10.660 +0000",1528334050.660029,0.598723,0.000460,0.048750,0.563588,-0.000460,-0.826056,0.000000,0.000000,0.000000,-1,-0.309877,0.493950,2.515109,0.042507,-0.398740,0.314245
"2018-06-07 01:14:10.670 +0000",1528334050.670104,0.601485,0.011641,0.072032,0.565829,-0.011641,-0.824440,0.000000,0.000000,0.000000,-1,-0.448061,0.178594,2.494071,-0.057360,-0.183656,0.187279
"2018-06-07 01:14:10.680 +0000",1528334050.680177,0.601296,0.022443,0.094641,0.565569,-0.022441,-0.824395,0.000000,0.000000,0.000000,-1,-0.340498,0.002294,2.459966,-0.195910,0.042384,0.072930
"2018-06-07 01:14:10.690 +0000",1528334050.690251,0.603922,0.035729,0.118320,0.567512,-0.035722,-0.822589,0.000000,0.000000,0.000000,-1,-0.218618,0.553401,2.796892,0.048897,-0.106399,0.138568
"2018-06-07 01:14:10.700 +0000",1528334050.700325,0.615262,0.053038,0.145047,0.576361,-0.053013,-0.815473,0.000000,0.000000,0.000000,-1,-0.097906,1.389435,3.250818,0.515848,0.041492,0.151823
"2018-06-07 01:14:10.710 +0000",1528334050.710400,0.626397,0.070253,0.170046,0.584783,-0.070195,-0.808146,0.000000,0.000000,0.000000,-1,-0.049043,1.120299,2.802455,0.425684,0.612142,-0.097493
"2018-06-07 01:14:10.720 +0000",1528334050.720474,0.633234,0.083471,0.186819,0.589695,-0.083374,-0.803311,0.000000,0.000000,0.000000,-1,0.123165,0.735952,1.898476,-0.198429,0.953460,-0.229496
"2018-06-07 01:14:10.731 +0000",1528334050.730547,0.639294,0.092100,0.195515,0.594100,-0.091970,-0.799116,0.000000,0.000000,0.000000,-1,0.192535,0.678676,0.941903,-0.386901,0.556218,-0.114001
"2018-06-07 01:14:10.741 +0000",1528334050.740622,0.645741,0.094871,0.195559,0.599084,-0.094728,-0.795062,0.000000,0.000000,0.000000,-1,0.228688,0.606145,-0.064119,-0.397317,0.523653,-0.120236
"2018-06-07 01:14:10.751 +0000",1528334050.750695,0.650490,0.094360,0.189948,0.602882,-0.094220,-0.792247,0.000000,0.000000,0.000000,-1,0.303295,0.320898,-0.580354,-0.222511,0.273495,-0.174245
"2018-06-07 01:14:10.761 +0000",1528334050.760769,0.651553,0.092737,0.181439,0.603816,-0.092604,-0.791726,0.000000,0.000000,0.000000,-1,0.417963,-0.087219,-0.827051,-0.062205,0.141829,-0.223273
"2018-06-07 01:14:10.771 +0000",1528334050.770844,0.648354,0.090884,0.170757,0.601383,-0.090759,-0.793789,0.000000,0.000000,0.000000,-1,0.504611,-0.513375,-0.979079,-0.019641,0.118240,-0.222965
"2018-06-07 01:14:10.781 +0000",1528334050.780918,0.642427,0.088854,0.159881,0.596777,-0.088737,-0.797485,0.000000,0.000000,0.000000,-1,0.472162,-0.713302,-0.968830,0.003153,-0.050957,-0.079392
"2018-06-07 01:14:10.791 +0000",1528334050.790992,0.636781,0.086382,0.149788,0.592393,-0.086274,-0.801016,0.000000,0.000000,0.000000,-1,0.349135,-0.633540,-0.960787,-0.036241,-0.150420,0.073507
"2018-06-07 01:14:10.801 +0000",1528334050.801065,0.632126,0.081921,0.140476,0.588879,-0.081829,-0.804067,0.000000,0.000000,0.000000,-1,0.134147,-0.501059,-1.020145,-0.086148,-0.139850,0.177770
"2018-06-07 01:14:10.811 +0000",1528334050.811140,0.628268,0.075409,0.132063,0.586074,-0.075338,-0.806747,0.000000,0.000000,0.000000,-1,-0.080849,-0.446564,-1.068974,-0.070922,-0.202876,0.176758
"2018-06-07 01:14:10.821 +0000",1528334050.821213,0.623892,0.066977,0.124111,0.582889,-0.066927,-0.809791,0.000000,0.000000,0.000000,-1,-0.265048,-0.508223,-1.147254,-0.059619,-0.171965,0.087867
"2018-06-07 01:14:10.831 +0000",1528334050.831287,0.619606,0.057018,0.116531,0.579770,-0.056987,-0.812784,0.000000,0.000000,0.000000,-1,-0.409610,-0.464482,-1.202729,-0.049131,-0.172291,0.054651
"2018-06-07 01:14:10.841 +0000",1528334050.841362,0.615740,0.046789,0.109253,0.576930,-0.046772,-0.815453,0.000000,0.000000,0.000000,-1,-0.402600,-0.426207,-1.162835,-0.042171,-0.197170,0.041268
"2018-06-07 01:14:10.851 +0000",1528334050.851436,0.611722,0.037089,0.102009,0.573883,-0.037081,-0.818097,0.000000,0.000000,0.000000,-1,-0.361740,-0.438232,-1.147904,-0.102783,-0.217955,0.020719
"2018-06-07 01:14:10.862 +0000",1528334050.861509,0.607822,0.027656,0.093588,0.570862,-0.027653,-0.820580,0.000000,0.000000,0.000000,-1,-0.265457,-0.394745,-1.244806,-0.206268,-0.030850,0.015938
"2018-06-07 01:14:10.872 +0000",1528334050.871583,0.606326,0.019176,0.084235,0.569747,-0.019175,-0.821596,0.000000,0.000000,0.000000,-1,-0.148098,-0.080446,-1.247388,-0.162444,0.059886,0.067156
"2018-06-07 01:14:10.882 +0000",1528334050.881658,0.609028,0.011681,0.075352,0.572031,-0.011680,-0.820148,0.000000,0.000000,0.000000,-1,-0.109613,0.319776,-1.110780,-0.026758,-0.010659,0.130207
"2018-06-07 01:14:10.892 +0000",1528334050.891732,0.611955,0.005083,0.068136,0.574461,-0.005083,-0.818516,0.000000,0.000000,0.000000,-1,-0.127889,0.251924,-0.910866,0.066027,-0.070021,0.020023
"2018-06-07 01:14:10.902 +0000",1528334050.901805,0.613229,-0.000263,0.062513,0.575511,0.000263,-0.817794,0.000000,0.000000,0.000000,-1,-0.100881,0.086511,-0.714566,0.072347,-0.080738,-0.095429
"2018-06-07 01:14:10.912 +0000",1528334050.911880,0.613617,-0.004072,0.057894,0.575824,0.004072,-0.817563,0.000000,0.000000,0.000000,-1,-0.047238,0.019130,-0.579353,0.061719,-0.099653,-0.102420
"2018-06-07 01:14:10.922 +0000",1528334050.921955,0.613496,-0.007662,0.053561,0.575713,0.007662,-0.817616,0.000000,0.000000,0.000000,-1,-0.053669,-0.018302,-0.557935,0.023988,-0.084917,-0.052349
"2018-06-07 01:14:10.932 +0000",1528334050.932029,0.613111,-0.011758,0.049432,0.575374,0.011758,-0.817805,0.000000,0.000000,0.000000,-1,-0.106059,-0.039247,-0.571859,0.017719,-0.126840,0.016414
"2018-06-07 01:14:10.942 +0000",1528334050.942102,0.612192,-0.015991,0.045146,0.574589,0.015991,-0.818285,0.000000,0.000000,0.000000,-1,-0.097443,-0.113794,-0.590382,0.007808,-0.109542,0.017473
"2018-06-07 01:14:10.952 +0000",1528334050.952177,0.610435,-0.020182,0.041083,0.573107,0.020180,-0.819232,0.000000,0.000000,0.000000,-1,-0.135297,-0.182019,-0.576510,0.019652,-0.102593,0.003009
"2018-06-07 01:14:10.962 +0000",1528334050.962251,0.608697,-0.024819,0.037603,0.571623,0.024817,-0.820141,0.000000,0.000000,0.000000,-1,-0.200771,-0.168115,-0.532218,0.044801,-0.055151,0.020656
"2018-06-07 01:14:10.972 +0000",1528334050.972325,0.607352,-0.029480,0.035075,0.570447,0.029476,-0.820805,0.000000,0.000000,0.000000,-1,-0.229759,-0.108130,-0.457758,0.046237,-0.090908,0.005253
"2018-06-07 01:14:10.982 +0000",1528334050.982399,0.606044,-0.033323,0.031886,0.569304,0.033316,-0.821451,0.000000,0.000000,0.000000,-1,-0.100325,-0.126309,-0.487149,-0.037657,-0.013068,-0.052374
"2018-06-07 01:14:10.992 +0000",1528334050.992473,0.604296,-0.036697,0.027392,0.567800,0.036689,-0.822348,0.000000,0.000000,0.000000,-1,-0.026886,-0.183790,-0.605806,-0.071905,0.029412,-0.036813
"2018-06-07 01:14:11.003 +0000",1528334051.002547,0.601953,-0.041193,0.021619,0.565773,0.041181,-0.823532,0.000000,0.000000,0.000000,-1,-0.061378,-0.215073,-0.760711,-0.054237,0.070650,-0.000336
"2018-06-07 01:14:11.013 +0000",1528334051.012621,0.601486,-0.043359,0.015426,0.565336,0.043346,-0.823721,0.000000,0.000000,0.000000,-1,-0.211579,-0.147920,-0.905383,0.011431,0.083608,0.021856
"2018-06-07 01:14:11.023 +0000",1528334051.022695,0.600861,-0.048247,0.009283,0.564695,0.048229,-0.823889,0.000000,0.000000,0.000000,-1,-0.407186,-0.139238,-1.011399,0.037615,0.051549,0.006338
"2018-06-07 01:14:11.033 +0000",1528334051.032769,0.601348,-0.053783,0.003530,0.564936,0.053757,-0.823381,0.000000,0.000000,0.000000,-1,-0.421252,0.012069,-0.976506,0.064062,-0.040330,-0.018873
"2018-06-07 01:14:11.043 +0000",1528334051.042843,0.603767,-0.059324,-0.002250,0.566749,0.059289,-0.821754,0.000000,0.000000,0.000000,-1,-0.284173,0.094545,-0.919571,0.013482,-0.029046,-0.023644
"2018-06-07 01:14:11.053 +0000",1528334051.052917,0.606988,-0.061364,-0.008563,0.569322,0.061325,-0.819824,0.000000,0.000000,0.000000,-1,-0.010172,0.274787,-0.787370,-0.041643,0.033478,-0.036393
"2018-06-07 01:14:11.063 +0000",1528334051.062991,0.608633,-0.063602,-0.014970,0.570590,0.063559,-0.818771,0.000000,0.000000,0.000000,-1,0.102318,0.358058,-0.674442,-0.071246,-0.053915,0.019836
"2018-06-07 01:14:11.073 +0000",1528334051.073065,0.608007,-0.066447,-0.020824,0.569972,0.066398,-0.818976,0.000000,0.000000,0.000000,-1,0.099828,0.172219,-0.600758,-0.091884,-0.120201,-0.004556
"2018-06-07 01:14:11.083 +0000",1528334051.083139,0.607668,-0.070614,-0.025810,0.569531,0.070555,-0.818935,0.000000,0.000000,0.000000,-1,0.018578,0.147625,-0.549012,-0.077496,-0.100066,0.016705
"2018-06-07 01:14:11.093 +0000",1528334051.093213,0.609115,-0.074908,-0.029635,0.570537,0.074838,-0.817854,0.000000,0.000000,0.000000,-1,-0.036753,0.132804,-0.454272,-0.004253,-0.031900,-0.009584
"2018-06-07 01:14:11.103 +0000",1528334051.103287,0.610516,-0.078003,-0.032422,0.571547,0.077924,-0.816860,0.000000,0.000000,0.000000,-1,-0.053197,0.076368,-0.357589,0.038667,0.042712,-0.043171
"2018-06-07 01:14:11.113 +0000",1528334051.113361,0.611173,-0.078526,-0.034779,0.572060,0.078446,-0.816451,0.000000,0.000000,0.000000,-1,-0.040823,-0.034655,-0.313839,0.007362,0.037414,-0.078156
"2018-06-07 01:14:11.123 +0000",1528334051.123435,0.610020,-0.079142,-0.037510,0.571090,0.079060,-0.817071,0.000000,0.000000,0.000000,-1,0.017183,-0.091478,-0.337801,-0.032119,0.044888,-0.061942
"2018-06-07 01:14:11.134 +0000",1528334051.133509,0.606296,-0.081145,-0.041350,0.567953,0.081056,-0.819060,0.000000,0.000000,0.000000,-1,0.105064,-0.218257,-0.413666,-0.031011,0.125685,-0.061662
"2018-06-07 01:14:11.144 +0000",1528334051.143583,0.601545,-0.080768,-0.046279,0.564072,0.080681,-0.821774,0.000000,0.000000,0.000000,-1,0.193922,-0.363746,-0.477756,0.013077,0.197868,-0.080646
"2018-06-07 01:14:11.154 +0000",1528334051.153657,0.595490,-0.079275,-0.052210,0.559153,0.079192,-0.825273,0.000000,0.000000,0.000000,-1,0.311905,-0.454391,-0.511635,0.043692,0.236329,-0.087782
"2018-06-07 01:14:11.164 +0000",1528334051.163731,0.591289,-0.078719,-0.058218,0.555705,0.078638,-0.827651,0.000000,0.000000,0.000000,-1,0.394165,-0.327146,-0.434007,0.037831,0.172628,-0.047562
"2018-06-07 01:14:11.174 +0000",1528334051.173805,0.588885,-0.076803,-0.063190,0.553797,0.076727,-0.829109,0.000000,0.000000,0.000000,-1,0.447225,-0.168589,-0.250807,0.017676,0.049143,0.006492
"2018-06-07 01:14:11.184 +0000",1528334051.183879,0.588015,-0.073206,-0.066655,0.553225,0.073140,-0.829814,0.000000,0.000000,0.000000,-1,0.501113,-0.044199,-0.034364,-0.014879,-0.040151,0.014217
"2018-06-07 01:14:11.194 +0000",1528334051.193953,0.588149,-0.068408,-0.068610,0.553524,0.068355,-0.830023,0.000000,0.000000,0.000000,-1,0.484018,0.042889,0.129426,-0.059322,-0.068202,0.029944
"2018-06-07 01:14:11.204 +0000",1528334051.204027,0.589281,-0.063728,-0.069402,0.554635,0.063685,-0.829652,0.000000,0.000000,0.000000,-1,0.410813,0.148825,0.211651,-0.083658,0.024953,0.053514
"2018-06-07 01:14:11.214 +0000",1528334051.214101,0.591707,-0.058958,-0.069193,0.556809,0.058924,-0.828547,0.000000,0.000000,0.000000,-1,0.373232,0.269091,0.303517,-0.046510,0.046102,0.041484
"2018-06-07 01:14:11.224 +0000",1528334051.224175,0.595281,-0.053957,-0.067826,0.559925,0.053931,-0.826786,0.000000,0.000000,0.000000,-1,0.318702,0.374953,0.415817,0.007931,0.007089,0.028583
"2018-06-07 01:14:11.234 +0000",1528334051.234249,0.599640,-0.052613,-0.065202,0.563564,0.052588,-0.824396,0.000000,0.000000,0.000000,-1,0.221266,0.479683,0.507774,0.005162,-0.035437,0.041376
"2018-06-07 01:14:11.244 +0000",1528334051.244323,0.605112,-0.051091,-0.061043,0.568112,0.051069,-0.821365,0.000000,0.000000,0.000000,-1,0.067091,0.569966,0.604123,-0.000500,-0.083692,0.059463
"2018-06-07 01:14:11.254 +0000",1528334051.254397,0.612368,-0.047681,-0.054962,0.574153,0.047663,-0.817359,0.000000,0.000000,0.000000,-1,-0.113577,0.740226,0.721201,-0.006893,-0.112573,0.082999
"2018-06-07 01:14:11.264 +0000",1528334051.264471,0.622043,-0.044792,-0.046887,0.582112,0.044777,-0.811874,0.000000,0.000000,0.000000,-1,-0.261825,0.988481,0.847038,-0.005589,-0.109185,0.084640
"2018-06-07 01:14:11.275 +0000",1528334051.274545,0.634702,-0.042038,-0.037935,0.592413,0.042026,-0.804537,0.000000,0.000000,0.000000,-1,-0.321085,1.280234,0.868459,-0.023673,-0.043567,0.064119
"2018-06-07 01:14:11.285 +0000",1528334051.284619,0.648954,-0.039960,-0.029638,0.603871,0.039950,-0.796080,0.000000,0.000000,0.000000,-1,-0.321290,1.388331,0.745075,-0.018071,0.001203,0.045149
"2018-06-07 01:14:11.295 +0000",1528334051.294693,0.661897,-0.038717,-0.023011,0.614153,0.038708,-0.788236,0.000000,0.000000,0.000000,-1,-0.306897,1.196040,0.535808,-0.003924,-0.066601,-0.000292
"2018-06-07 01:14:11.305 +0000",1528334051.304767,0.672722,-0.042164,-0.017973,0.622563,0.042152,-0.781433,0.000000,0.000000,0.000000,-1,-0.685429,1.088320,0.055548,0.003551,-0.299491,0.041351
"2018-06-07 01:14:11.315 +0000",1528334051.314841,0.686502,-0.046998,-0.014622,0.633135,0.046980,-0.772614,0.000000,0.000000,0.000000,-1,-0.514794,1.396591,-0.045057,-0.008868,-0.427931,0.109741
"2018-06-07 01:14:11.325 +0000",1528334051.324915,0.696247,-0.048771,-0.012626,0.640580,0.048752,-0.766342,0.000000,0.000000,0.000000,-1,-0.194636,0.716406,0.064098,0.061538,-0.320862,-0.124771
"2018-06-07 01:14:11.335 +0000",1528334051.334989,0.695212,-0.049008,-0.011479,0.639779,0.048988,-0.766996,0.000000,0.000000,0.000000,-1,-0.065502,-0.338198,0.065037,0.101188,-0.258675,-0.244677
"2018-06-07 01:14:11.345 +0000",1528334051.345063,0.689362,-0.048540,-0.010525,0.635296,0.048521,-0.770742,0.000000,0.000000,0.000000,-1,-0.018479,-0.598505,0.128711,0.091923,-0.178709,-0.146280
"2018-06-07 01:14:11.355 +0000",1528334051.355137,0.684575,-0.047599,-0.008316,0.631627,0.047581,-0.773810,0.000000,0.000000,0.000000,-1,-0.106698,-0.446650,0.245525,0.088527,-0.105779,0.010154
"2018-06-07 01:14:11.365 +0000",1528334051.365211,0.681536,-0.047220,-0.004936,0.629284,0.047202,-0.775740,0.000000,0.000000,0.000000,-1,-0.197550,-0.267060,0.291432,0.059757,-0.061729,0.055082
"2018-06-07 01:14:11.375 +0000",1528334051.375285,0.680392,-0.046801,-0.001334,0.628409,0.046784,-0.776475,0.000000,0.000000,0.000000,-1,-0.187337,-0.094751,0.308045,0.037134,-0.014909,0.045518
"2018-06-07 01:14:11.385 +0000",1528334051.385359,0.680044,-0.045740,0.002221,0.628169,0.045724,-0.776731,0.000000,0.000000,0.000000,-1,-0.118413,-0.040958,0.353220,0.035481,0.000357,0.022550
"2018-06-07 01:14:11.395 +0000",1528334051.395433,0.679882,-0.043408,0.005377,0.628109,0.043394,-0.776914,0.000000,0.000000,0.000000,-1,-0.000965,-0.030849,0.376645,0.041981,-0.040190,-0.002215
"2018-06-07 01:14:11.406 +0000",1528334051.405507,0.679834,-0.041337,0.007714,0.628127,0.041325,-0.777012,0.000000,0.000000,0.000000,-1,0.009175,-0.006283,0.284188,0.014177,-0.004048,0.014241
"2018-06-07 01:14:11.416 +0000",1528334051.415581,0.679873,-0.040235,0.009476,0.628185,0.040224,-0.777023,0.000000,0.000000,0.000000,-1,-0.039368,-0.003773,0.176742,0.015065,0.012357,0.026397
"2018-06-07 01:14:11.426 +0000",1528334051.425655,0.680518,-0.039953,0.010915,0.628694,0.039942,-0.776626,0.000000,0.000000,0.000000,-1,-0.074720,0.084193,0.118994,0.039412,-0.029093,0.024978
"2018-06-07 01:14:11.436 +0000",1528334051.435729,0.682185,-0.039566,0.012418,0.629997,0.039556,-0.775589,0.000000,0.000000,0.000000,-1,-0.069688,0.175249,0.136458,0.050835,-0.063817,0.021912
"2018-06-07 01:14:11.446 +0000",1528334051.445803,0.684369,-0.038992,0.013920,0.631703,0.038982,-0.774229,0.000000,0.000000,0.000000,-1,-0.041526,0.216956,0.156952,0.032924,-0.051845,0.006071
"2018-06-07 01:14:11.456 +0000",1528334051.455877,0.686538,-0.038147,0.015188,0.633402,0.038138,-0.772882,0.000000,0.000000,0.000000,-1,-0.005704,0.206133,0.143930,0.003668,-0.039984,0.005869
"2018-06-07 01:14:11.466 +0000",1528334051.465951,0.688242,-0.037427,0.016135,0.634735,0.037418,-0.771822,0.000000,0.000000,0.000000,-1,-0.008534,0.146990,0.109344,-0.010101,-0.029499,0.012179
"2018-06-07 01:14:11.476 +0000",1528334051.476025,0.689607,-0.036227,0.016861,0.635816,0.036219,-0.770989,0.000000,0.000000,0.000000,-1,0.013728,0.081263,0.090816,-0.012220,-0.036219,0.000772
"2018-06-07 01:14:11.486 +0000",1528334051.486099,0.690190,-0.035525,0.017240,0.636281,0.035517,-0.770638,0.000000,0.000000,0.000000,-1,0.034973,0.023240,0.066934,-0.021032,-0.051249,0.002724
"2018-06-07 01:14:11.496 +0000",1528334051.496173,0.690750,-0.035287,0.017431,0.636718,0.035280,-0.770288,0.000000,0.000000,0.000000,-1,0.045595,0.003564,0.053945,-0.010696,-0.056200,0.010797
"2018-06-07 01:14:11.506 +0000",1528334051.506247,0.692137,-0.033876,0.017567,0.637817,0.033869,-0.769442,0.000000,0.000000,0.000000,-1,0.045615,0.033231,0.047577,-0.007934,-0.053355,0.019442
"2018-06-07 01:14:11.516 +0000",1528334051.516321,0.693979,-0.031614,0.017689,0.639281,0.031608,-0.768323,0.000000,0.000000,0.000000,-1,0.043518,0.055194,0.044419,-0.006850,-0.048866,0.016599
"2018-06-07 01:14:11.526 +0000",1528334051.526395,0.695162,-0.029772,0.017753,0.640226,0.029768,-0.767609,0.000000,0.000000,0.000000,-1,0.045607,0.058488,0.045500,-0.005460,-0.042280,0.006730
"2018-06-07 01:14:11.536 +0000",1528334051.536469,0.695628,-0.028340,0.017814,0.640610,0.028336,-0.767343,0.000000,0.000000,0.000000,-1,0.041427,0.045308,0.044395,-0.002518,-0.043076,0.004068
"2018-06-07 01:14:11.547 +0000",1528334051.546543,0.695844,-0.027213,0.017925,0.640796,0.027209,-0.767228,0.000000,0.000000,0.000000,-1,0.039291,0.038693,0.049759,-0.001102,-0.044467,0.006212
"2018-06-07 01:14:11.557 +0000",1528334051.556617,0.695821,-0.025959,0.018143,0.640800,0.025956,-0.767269,0.000000,0.000000,0.000000,-1,0.028725,0.035334,0.058379,0.001397,-0.048173,0.010478
"2018-06-07 01:14:11.567 +0000",1528334051.566691,0.695711,-0.024448,0.018462,0.640740,0.024445,-0.767368,0.000000,0.000000,0.000000,-1,0.015078,0.036399,0.057337,0.004097,-0.047578,0.008549
"2018-06-07 01:14:11.577 +0000",1528334051.576765,0.696011,-0.022973,0.018831,0.640992,0.022971,-0.767203,0.000000,0.000000,0.000000,-1,0.004610,0.041881,0.051999,0.010070,-0.047217,0.001242
"2018-06-07 01:14:11.587 +0000",1528334051.586839,0.696622,-0.021612,0.019198,0.641480,0.021610,-0.766834,0.000000,0.000000,0.000000,-1,0.006711,0.050673,0.050944,0.017547,-0.046253,-0.007091
"2018-06-07 01:14:11.597 +0000",1528334051.596913,0.697297,-0.020363,0.019549,0.642015,0.020361,-0.766421,0.000000,0.000000,0.000000,-1,0.006722,0.056171,0.048809,0.022185,-0.043585,-0.011655
"2018-06-07 01:14:11.607 +0000",1528334051.606987,0.697848,-0.019253,0.019872,0.642451,0.019252,-0.766085,0.000000,0.000000,0.000000,-1,0.009882,0.055086,0.047723,0.021597,-0.042140,-0.011747
"2018-06-07 01:14:11.617 +0000",1528334051.617061,0.698320,-0.018175,0.020137,0.642826,0.018174,-0.765796,0.000000,0.000000,0.000000,-1,0.008899,0.045235,0.040167,0.019863,-0.043214,-0.013241
"2018-06-07 01:14:11.627 +0000",1528334051.627135,0.698743,-0.017115,0.020369,0.643161,0.017114,-0.765539,0.000000,0.000000,0.000000,-1,0.008952,0.033183,0.034754,0.018292,-0.046014,-0.012919
"2018-06-07 01:14:11.637 +0000",1528334051.637209,0.699175,-0.016052,0.020595,0.643504,0.016052,-0.765274,0.000000,0.000000,0.000000,-1,0.002677,0.030983,0.031535,0.017385,-0.044647,-0.009277
"2018-06-07 01:14:11.647 +0000",1528334051.647283,0.699554,-0.015072,0.020796,0.643803,0.015071,-0.765042,0.000000,0.000000,0.000000,-1,-0.000417,0.023317,0.025066,0.019862,-0.041332,-0.006992
"2018-06-07 01:14:11.657 +0000",1528334051.657357,0.699836,-0.014136,0.020947,0.644028,0.014135,-0.764871,0.000000,0.000000,0.000000,-1,0.001726,0.013462,0.020729,0.024338,-0.040045,-0.007346
"2018-06-07 01:14:11.667 +0000",1528334051.667431,0.700044,-0.013240,0.021085,0.644195,0.013240,-0.764747,0.000000,0.000000,0.000000,-1,0.002802,0.004691,0.018550,0.028825,-0.038539,-0.008645
"2018-06-07 01:14:11.678 +0000",1528334051.677506,0.700021,-0.013112,0.021193,0.644178,0.013112,-0.764763,0.000000,0.000000,0.000000,-1,0.003877,-0.004079,0.016371,0.028841,-0.038411,-0.008629
"2018-06-07 01:14:11.688 +0000",1528334051.687579,0.700181,-0.011762,0.021299,0.644311,0.011762,-0.764673,0.000000,0.000000,0.000000,-1,0.000742,-0.011767,0.015280,0.034400,-0.033444,-0.006949
"2018-06-07 01:14:11.698 +0000",1528334051.697654,0.700120,-0.011117,0.021391,0.644270,0.011116,-0.764717,0.000000,0.000000,0.000000,-1,-0.001321,-0.017244,0.010966,0.036227,-0.030815,-0.004570
"2018-06-07 01:14:11.708 +0000",1528334051.707728,0.699976,-0.010501,0.021468,0.644163,0.010501,-0.764815,0.000000,0.000000,0.000000,-1,-0.002345,-0.027117,0.008789,0.035372,-0.028399,-0.003465
"2018-06-07 01:14:11.718 +0000",1528334051.717802,0.699714,-0.010001,0.021525,0.643966,0.010001,-0.764988,0.000000,0.000000,0.000000,-1,-0.006469,-0.039168,0.000158,0.032059,-0.028037,-0.003658
"2018-06-07 01:14:11.728 +0000",1528334051.727876,0.699404,-0.009617,0.021581,0.643732,0.009617,-0.765190,0.000000,0.000000,0.000000,-1,-0.010645,-0.047953,-0.002010,0.028585,-0.028019,0.000679
"2018-06-07 01:14:11.738 +0000",1528334051.737950,0.699184,-0.009305,0.021662,0.643566,0.009305,-0.765334,0.000000,0.000000,0.000000,-1,-0.017997,-0.040285,-0.003046,0.023411,-0.027722,0.008895
"2018-06-07 01:14:11.748 +0000",1528334051.748024,0.699019,-0.009047,0.021740,0.643441,0.009046,-0.765442,0.000000,0.000000,0.000000,-1,-0.019014,-0.040269,-0.007346,0.017204,-0.028395,0.010040
"2018-06-07 01:14:11.758 +0000",1528334051.758098,0.698817,-0.008837,0.021815,0.643287,0.008837,-0.765574,0.000000,0.000000,0.000000,-1,-0.020037,-0.051241,-0.009527,0.010506,-0.027804,0.006586
"2018-06-07 01:14:11.768 +0000",1528334051.768172,0.698561,-0.008667,0.021909,0.643092,0.008667,-0.765739,0.000000,0.000000,0.000000,-1,-0.025288,-0.061140,-0.008468,0.004811,-0.028335,0.002754
"2018-06-07 01:14:11.778 +0000",1528334051.778246,0.698299,-0.008527,0.021999,0.642892,0.008527,-0.765909,0.000000,0.000000,0.000000,-1,-0.025269,-0.063326,-0.010626,0.001609,-0.030713,-0.000968
"2018-06-07 01:14:11.788 +0000",1528334051.788320,0.698046,-0.008383,0.022091,0.642699,0.008383,-0.766072,0.000000,0.000000,0.000000,-1,-0.023193,-0.063334,-0.007404,-0.001143,-0.032111,-0.003138
"2018-06-07 01:14:11.798 +0000",1528334051.798394,0.697813,-0.008205,0.022216,0.642521,0.008205,-0.766223,0.000000,0.000000,0.000000,-1,-0.023223,-0.057859,-0.004161,-0.006596,-0.031978,-0.002392
"2018-06-07 01:14:11.808 +0000",1528334051.808468,0.697647,-0.007992,0.022332,0.642396,0.007992,-0.766331,0.000000,0.000000,0.000000,-1,-0.021130,-0.050169,-0.004143,-0.011368,-0.032772,-0.000515
"2018-06-07 01:14:11.819 +0000",1528334051.818542,0.697567,-0.007754,0.022484,0.642336,0.007754,-0.766384,0.000000,0.000000,0.000000,-1,-0.023257,-0.047993,-0.000905,-0.014620,-0.031146,-0.000050
"2018-06-07 01:14:11.829 +0000",1528334051.828616,0.697469,-0.007487,0.022602,0.642261,0.007487,-0.766448,0.000000,0.000000,0.000000,-1,-0.019061,-0.042492,-0.000899,-0.016468,-0.030635,0.000305
"2018-06-07 01:14:11.839 +0000",1528334051.838690,0.697273,-0.007220,0.022733,0.642112,0.007220,-0.766576,0.000000,0.000000,0.000000,-1,-0.020136,-0.042509,0.002331,-0.020012,-0.030948,-0.000651
"2018-06-07 01:14:11.849 +0000",1528334051.848764,0.696975,-0.006932,0.022857,0.641885,0.006932,-0.766769,0.000000,0.000000,0.000000,-1,-0.015928,-0.041395,0.001249,-0.023645,-0.029469,-0.002625
"2018-06-07 01:14:11.859 +0000",1528334051.858838,0.696637,-0.006602,0.023017,0.641628,0.006602,-0.766987,0.000000,0.000000,0.000000,-1,-0.017026,-0.034834,0.006648,-0.026500,-0.026881,-0.003826
"2018-06-07 01:14:11.869 +0000",1528334051.868912,0.696364,-0.006243,0.023218,0.641420,0.006243,-0.767164,0.000000,0.000000,0.000000,-1,-0.018129,-0.022784,0.012064,-0.028215,-0.025408,0.000135
"2018-06-07 01:14:11.879 +0000",1528334051.878986,0.696159,-0.005861,0.023433,0.641264,0.005861,-0.767298,0.000000,0.000000,0.000000,-1,-0.017108,-0.009617,0.014251,-0.030012,-0.023958,0.000437
"2018-06-07 01:14:11.889 +0000",1528334051.889060,0.695985,-0.005437,0.023637,0.641132,0.005437,-0.767411,0.000000,0.000000,0.000000,-1,-0.012918,-0.006316,0.015327,-0.031604,-0.022115,-0.000472
"2018-06-07 01:14:11.899 +0000",1528334051.899134,0.695770,-0.005029,0.023835,0.640969,0.005029,-0.767550,0.000000,0.000000,0.000000,-1,-0.011866,-0.008509,0.015318,-0.032921,-0.022592,-0.005597
"2018-06-07 01:14:11.909 +0000",1528334051.909208,0.695553,-0.004657,0.024022,0.640803,0.004657,-0.767691,0.000000,0.000000,0.000000,-1,-0.012900,-0.008503,0.013169,-0.030818,-0.021686,-0.006708
"2018-06-07 01:14:11.919 +0000",1528334051.919282,0.695287,-0.004291,0.024183,0.640600,0.004291,-0.767863,0.000000,0.000000,0.000000,-1,-0.012884,-0.007396,0.011021,-0.028203,-0.018848,-0.006262
"2018-06-07 01:14:11.929 +0000",1528334051.929356,0.694993,-0.003958,0.024352,0.640375,0.003958,-0.768052,0.000000,0.000000,0.000000,-1,-0.011844,-0.005202,0.012101,-0.024423,-0.017173,-0.008590
"2018-06-07 01:14:11.939 +0000",1528334051.939430,0.694631,-0.003681,0.024503,0.640098,0.003681,-0.768284,0.000000,0.000000,0.000000,-1,-0.010764,-0.010674,0.008856,-0.018043,-0.017384,-0.009700
"2018-06-07 01:14:11.950 +0000",1528334051.949504,0.694216,-0.003432,0.024646,0.639779,0.003432,-0.768551,0.000000,0.000000,0.000000,-1,-0.013900,-0.017265,0.007768,-0.010141,-0.019957,-0.011677
"2018-06-07 01:14:11.960 +0000",1528334051.959577,0.693819,-0.003201,0.024792,0.639475,0.003201,-0.768805,0.000000,0.000000,0.000000,-1,-0.012863,-0.011778,0.008857,-0.001459,-0.020428,-0.012994
"2018-06-07 01:14:11.970 +0000",1528334051.969651,0.693446,-0.003040,0.024922,0.639188,0.003040,-0.769044,0.000000,0.000000,0.000000,-1,-0.017019,-0.007372,0.002426,0.004901,-0.020130,-0.011718
"2018-06-07 01:14:11.980 +0000",1528334051.979725,0.693036,-0.002937,0.025041,0.638872,0.002937,-0.769307,0.000000,0.000000,0.000000,-1,-0.020129,-0.007358,-0.002945,0.010175,-0.023125,-0.009243
"2018-06-07 01:14:11.990 +0000",1528334051.989799,0.692638,-0.002895,0.025159,0.638567,0.002895,-0.769561,0.000000,0.000000,0.000000,-1,-0.023272,-0.007362,-0.004014,0.013731,-0.026393,-0.008683
"2018-06-07 01:14:12.000 +0000",1528334051.999873,0.692236,-0.002912,0.025262,0.638257,0.002912,-0.769817,0.000000,0.000000,0.000000,-1,-0.024291,-0.013938,-0.007258,0.018069,-0.028623,-0.011250
"2018-06-07 01:14:12.010 +0000",1528334052.009947,0.691813,-0.002978,0.025370,0.637932,0.002978,-0.770087,0.000000,0.000000,0.000000,-1,-0.026382,-0.016135,-0.008335,0.019234,-0.026645,-0.014230
"2018-06-07 01:14:12.020 +0000",1528334052.020021,0.691458,-0.003062,0.025460,0.637658,0.003062,-0.770314,0.000000,0.000000,0.000000,-1,-0.026360,-0.012828,-0.011552,0.023124,-0.025325,-0.013897
"2018-06-07 01:14:12.030 +0000",1528334052.030095,0.691239,-0.003064,0.025529,0.637489,0.003064,-0.770453,0.000000,0.000000,0.000000,-1,-0.021131,-0.006236,-0.009394,0.022972,-0.023465,-0.010843
"2018-06-07 01:14:12.040 +0000",1528334052.040169,0.691160,-0.003041,0.025589,0.637429,0.003041,-0.770503,0.000000,0.000000,0.000000,-1,-0.020105,0.001442,-0.007222,0.021232,-0.022648,-0.008046
"2018-06-07 01:14:12.050 +0000",1528334052.050243,0.691161,-0.002998,0.025679,0.637429,0.002998,-0.770503,0.000000,0.000000,0.000000,-1,-0.020129,0.001429,-0.003995,0.016334,-0.023903,-0.004232
"2018-06-07 01:14:12.060 +0000",1528334052.060317,0.691177,-0.002943,0.025813,0.637442,0.002943,-0.770493,0.000000,0.000000,0.000000,-1,-0.024341,-0.005178,-0.001854,0.010813,-0.026548,-0.001511
"2018-06-07 01:14:12.070 +0000",1528334052.070391,0.691205,-0.002849,0.025974,0.637464,0.002849,-0.770475,0.000000,0.000000,0.000000,-1,-0.026459,-0.004096,0.000306,0.006656,-0.028316,0.001203
"2018-06-07 01:14:12.080 +0000",1528334052.080465,0.691261,-0.002765,0.026183,0.637507,0.002765,-0.770440,0.000000,0.000000,0.000000,-1,-0.030687,-0.003023,0.003545,0.001882,-0.028995,0.004387
"2018-06-07 01:14:12.091 +0000",1528334052.090539,0.691250,-0.002725,0.026432,0.637498,0.002725,-0.770447,0.000000,0.000000,0.000000,-1,-0.035941,-0.008531,0.004617,-0.000398,-0.028299,0.004929
"2018-06-07 01:14:12.101 +0000",1528334052.100613,0.691206,-0.002720,0.026710,0.637464,0.002720,-0.770475,0.000000,0.000000,0.000000,-1,-0.038033,-0.017319,0.004596,-0.002058,-0.028462,0.004194
"2018-06-07 01:14:12.111 +0000",1528334052.110687,0.691080,-0.002757,0.026992,0.637367,0.002757,-0.770555,0.000000,0.000000,0.000000,-1,-0.040126,-0.026105,0.004577,-0.002480,-0.027019,0.002458
"2018-06-07 01:14:12.121 +0000",1528334052.120761,0.690939,-0.002788,0.027265,0.637258,0.002788,-0.770645,0.000000,0.000000,0.000000,-1,-0.038017,-0.026094,0.003497,-0.002615,-0.021495,-0.001419
"2018-06-07 01:14:12.131 +0000",1528334052.130835,0.690851,-0.002776,0.027529,0.637191,0.002776,-0.770701,0.000000,0.000000,0.000000,-1,-0.033839,-0.018407,0.005661,-0.001983,-0.016936,-0.000830
"2018-06-07 01:14:12.141 +0000",1528334052.140909,0.690838,-0.002701,0.027770,0.637181,0.002701,-0.770709,0.000000,0.000000,0.000000,-1,-0.030699,-0.007421,0.005686,-0.002888,-0.010392,0.002017
"2018-06-07 01:14:12.151 +0000",1528334052.150983,0.690881,-0.002544,0.027985,0.637214,0.002544,-0.770682,0.000000,0.000000,0.000000,-1,-0.021271,0.001378,0.007841,-0.006385,-0.003078,0.005652
"2018-06-07 01:14:12.161 +0000",1528334052.161057,0.690962,-0.002300,0.028166,0.637277,0.002300,-0.770631,0.000000,0.000000,0.000000,-1,-0.013952,0.002479,0.012130,-0.011376,0.003971,0.008867
"2018-06-07 01:14:12.171 +0000",1528334052.171131,0.691015,-0.001976,0.028334,0.637318,0.001976,-0.770598,0.000000,0.000000,0.000000,-1,-0.005582,0.001386,0.016410,-0.017598,0.007789,0.007414
"2018-06-07 01:14:12.181 +0000",1528334052.181205,0.691016,-0.001571,0.028459,0.637320,0.001571,-0.770598,0.000000,0.000000,0.000000,-1,0.003866,-0.000788,0.017458,-0.022803,0.006715,0.006865
"2018-06-07 01:14:12.191 +0000",1528334052.191279,0.691008,-0.001146,0.028541,0.637313,0.001146,-0.770604,0.000000,0.000000,0.000000,-1,0.009117,-0.000773,0.017446,-0.026046,0.004362,0.006672
"2018-06-07 01:14:12.201 +0000",1528334052.201353,0.690983,-0.000743,0.028583,0.637295,0.000743,-0.770620,0.000000,0.000000,0.000000,-1,0.015417,0.001440,0.017438,-0.027843,0.001577,0.007100
"2018-06-07 01:14:12.211 +0000",1528334052.211427,0.690966,-0.000343,0.028557,0.637282,0.000343,-0.770631,0.000000,0.000000,0.000000,-1,0.022805,-0.000717,0.013112,-0.025709,-0.002479,0.003220
"2018-06-07 01:14:12.222 +0000",1528334052.221501,0.690927,0.000042,0.028452,0.637252,-0.000042,-0.770656,0.000000,0.000000,0.000000,-1,0.032271,-0.005077,0.012002,-0.023772,-0.004383,0.000972
"2018-06-07 01:14:12.232 +0000",1528334052.231575,0.690869,0.000411,0.028243,0.637207,-0.000411,-0.770692,0.000000,0.000000,0.000000,-1,0.041771,-0.002828,0.005533,-0.021973,-0.007081,0.000490
"2018-06-07 01:14:12.242 +0000",1528334052.241649,0.690785,0.000701,0.028002,0.637142,-0.000701,-0.770746,0.000000,0.000000,0.000000,-1,0.041793,-0.008308,0.003366,-0.018703,-0.008516,0.000085
"2018-06-07 01:14:12.252 +0000",1528334052.251723,0.690518,0.000945,0.027755,0.636936,-0.000945,-0.770916,0.000000,0.000000,0.000000,-1,0.041820,-0.019276,0.001183,-0.008869,-0.010316,-0.000782
"2018-06-07 01:14:12.262 +0000",1528334052.261797,0.690213,0.001167,0.027509,0.636701,-0.001167,-0.771110,0.000000,0.000000,0.000000,-1,0.038668,-0.018187,0.001193,-0.001996,-0.015496,0.000679
"2018-06-07 01:14:12.272 +0000",1528334052.271871,0.689936,0.001431,0.027303,0.636487,-0.001431,-0.771286,0.000000,0.000000,0.000000,-1,0.036537,-0.012718,0.004441,0.002917,-0.018619,0.002045
"2018-06-07 01:14:12.282 +0000",1528334052.281945,0.689695,0.001691,0.027160,0.636301,-0.001691,-0.771439,0.000000,0.000000,0.000000,-1,0.031249,-0.009457,0.008765,0.003881,-0.019823,-0.000976
"2018-06-07 01:14:12.292 +0000",1528334052.292019,0.689449,0.001972,0.027052,0.636111,-0.001972,-0.771595,0.000000,0.000000,0.000000,-1,0.025980,-0.008383,0.010932,0.004545,-0.021023,-0.005077
"2018-06-07 01:14:12.302 +0000",1528334052.302094,0.689205,0.002241,0.027018,0.635922,-0.002241,-0.771750,0.000000,0.000000,0.000000,-1,0.018604,-0.009515,0.014172,0.005374,-0.024324,-0.005060
"2018-06-07 01:14:12.312 +0000",1528334052.312167,0.689029,0.002478,0.027054,0.635786,-0.002478,-0.771861,0.000000,0.000000,0.000000,-1,0.011245,-0.002949,0.014208,0.005449,-0.025751,-0.004155
"2018-06-07 01:14:12.322 +0000",1528334052.322241,0.688914,0.002696,0.027145,0.635697,-0.002696,-0.771934,0.000000,0.000000,0.000000,-1,0.005966,-0.000782,0.017453,0.007049,-0.024831,-0.008263
"2018-06-07 01:14:12.332 +0000",1528334052.332315,0.688939,0.002909,0.027252,0.635715,-0.002909,-0.771918,0.000000,0.000000,0.000000,-1,0.003857,0.007994,0.017484,0.005978,-0.022665,-0.007501
"2018-06-07 01:14:12.342 +0000",1528334052.342389,0.689075,0.003131,0.027374,0.635821,-0.003131,-0.771830,0.000000,0.000000,0.000000,-1,-0.000334,0.014578,0.015361,0.004240,-0.023648,-0.007344
"2018-06-07 01:14:12.352 +0000",1528334052.352463,0.689282,0.003321,0.027517,0.635980,-0.003321,-0.771699,0.000000,0.000000,0.000000,-1,-0.006615,0.017868,0.012158,0.001700,-0.023794,-0.008407
"2018-06-07 01:14:12.363 +0000",1528334052.362537,0.689534,0.003486,0.027709,0.636174,-0.003486,-0.771538,0.000000,0.000000,0.000000,-1,-0.012940,0.024428,0.014343,-0.001439,-0.020913,-0.008812
"2018-06-07 01:14:12.373 +0000",1528334052.372611,0.689836,0.003617,0.027917,0.636406,-0.003617,-0.771345,0.000000,0.000000,0.000000,-1,-0.015031,0.032115,0.012219,-0.003914,-0.017486,-0.007952
"2018-06-07 01:14:12.383 +0000",1528334052.382685,0.690182,0.003746,0.028163,0.636673,-0.003746,-0.771124,0.000000,0.000000,0.000000,-1,-0.020311,0.035380,0.015467,-0.004486,-0.014610,-0.005884
"2018-06-07 01:14:12.393 +0000",1528334052.392759,0.690491,0.003904,0.028422,0.636911,-0.003904,-0.770927,0.000000,0.000000,0.000000,-1,-0.019279,0.028783,0.018673,-0.006753,-0.011202,-0.006187
"2018-06-07 01:14:12.403 +0000",1528334052.402833,0.690763,0.004034,0.028676,0.637120,-0.004034,-0.770754,0.000000,0.000000,0.000000,-1,-0.021354,0.027693,0.015447,-0.005665,-0.007883,-0.003507
"2018-06-07 01:14:12.413 +0000",1528334052.412907,0.691052,0.004171,0.028902,0.637342,-0.004171,-0.770569,0.000000,0.000000,0.000000,-1,-0.016103,0.028805,0.015439,-0.005140,-0.007624,0.000535
"2018-06-07 01:14:12.423 +0000",1528334052.422981,0.691297,0.004327,0.029076,0.637531,-0.004327,-0.770412,0.000000,0.000000,0.000000,-1,-0.010809,0.027745,0.010045,-0.005436,-0.007834,-0.001042
"2018-06-07 01:14:12.433 +0000",1528334052.433055,0.691473,0.004509,0.029164,0.637666,-0.004509,-0.770300,0.000000,0.000000,0.000000,-1,-0.002360,0.022302,0.004632,-0.008592,-0.003578,-0.001230
"2018-06-07 01:14:12.443 +0000",1528334052.443129,0.691595,0.004714,0.029150,0.637760,-0.004714,-0.770221,0.000000,0.000000,0.000000,-1,0.007116,0.015751,0.002440,-0.008960,-0.002794,-0.001752
"2018-06-07 01:14:12.453 +0000",1528334052.453203,0.691594,0.004910,0.029070,0.637758,-0.004910,-0.770221,0.000000,0.000000,0.000000,-1,0.012413,0.003708,-0.001910,-0.008318,-0.005512,-0.004193
"2018-06-07 01:14:12.463 +0000",1528334052.463277,0.691455,0.005090,0.028947,0.637650,-0.005090,-0.770309,0.000000,0.000000,0.000000,-1,0.014552,-0.010543,-0.005183,-0.006501,-0.005347,-0.003586
"2018-06-07 01:14:12.473 +0000",1528334052.473351,0.691200,0.005243,0.028768,0.637453,-0.005243,-0.770471,0.000000,0.000000,0.000000,-1,0.017736,-0.019303,-0.008443,-0.004229,-0.005697,-0.002524
"2018-06-07 01:14:12.483 +0000",1528334052.483425,0.690974,0.005341,0.028577,0.637279,-0.005341,-0.770614,0.000000,0.000000,0.000000,-1,0.014616,-0.017098,-0.012732,-0.001873,-0.005309,0.001861
"2018-06-07 01:14:12.493 +0000",1528334052.493499,0.690810,0.005446,0.028379,0.637152,-0.005446,-0.770719,0.000000,0.000000,0.000000,-1,0.016703,-0.011608,-0.011645,0.000269,-0.005571,0.004285
"2018-06-07 01:14:12.504 +0000",1528334052.503573,0.690634,0.005550,0.028205,0.637016,-0.005550,-0.770831,0.000000,0.000000,0.000000,-1,0.016689,-0.013812,-0.009500,0.001488,-0.008885,0.007266
"2018-06-07 01:14:12.514 +0000",1528334052.513647,0.690490,0.005650,0.028048,0.636905,-0.005650,-0.770922,0.000000,0.000000,0.000000,-1,0.015592,-0.008349,-0.004104,0.002286,-0.013087,0.009524
"2018-06-07 01:14:12.524 +0000",1528334052.523721,0.690310,0.005767,0.027952,0.636766,-0.005767,-0.771036,0.000000,0.000000,0.000000,-1,0.014512,-0.011663,0.000192,0.001021,-0.015488,0.007699
"2018-06-07 01:14:12.534 +0000",1528334052.533795,0.690091,0.005904,0.027905,0.636596,-0.005904,-0.771175,0.000000,0.000000,0.000000,-1,0.010289,-0.014982,0.003419,0.000641,-0.018327,0.007976
"2018-06-07 01:14:12.544 +0000",1528334052.543869,0.689924,0.006061,0.027911,0.636467,-0.006061,-0.771280,0.000000,0.000000,0.000000,-1,0.007084,-0.010627,0.009893,0.001594,-0.018810,0.006845
"2018-06-07 01:14:12.554 +0000",1528334052.553943,0.689835,0.006190,0.027978,0.636398,-0.006190,-0.771336,0.000000,0.000000,0.000000,-1,0.001802,-0.005166,0.013148,0.002930,-0.019750,0.005727
"2018-06-07 01:14:12.564 +0000",1528334052.564017,0.689783,0.006287,0.028103,0.636357,-0.006287,-0.771369,0.000000,0.000000,0.000000,-1,-0.006616,-0.006297,0.015315,0.003947,-0.019714,0.001105
"2018-06-07 01:14:12.574 +0000",1528334052.574091,0.689775,0.006377,0.028250,0.636351,-0.006377,-0.771373,0.000000,0.000000,0.000000,-1,-0.004527,-0.003002,0.016395,0.003816,-0.016740,-0.001942
"2018-06-07 01:14:12.584 +0000",1528334052.584165,0.689847,0.006494,0.028451,0.636406,-0.006494,-0.771327,0.000000,0.000000,0.000000,-1,-0.007718,0.004655,0.020727,0.003639,-0.012793,-0.002629
"2018-06-07 01:14:12.594 +0000",1528334052.594239,0.690041,0.006665,0.028674,0.636555,-0.006665,-0.771203,0.000000,0.000000,0.000000,-1,-0.006695,0.015627,0.022908,0.001476,-0.010898,-0.000404
"2018-06-07 01:14:12.604 +0000",1528334052.604313,0.690338,0.006914,0.028931,0.636783,-0.006914,-0.771012,0.000000,0.000000,0.000000,-1,-0.003623,0.028772,0.031545,-0.004169,-0.008956,0.002244
"2018-06-07 01:14:12.614 +0000",1528334052.614387,0.690691,0.007226,0.029193,0.637053,-0.007226,-0.770786,0.000000,0.000000,0.000000,-1,-0.002601,0.032055,0.034779,-0.010466,-0.008949,0.004200
"2018-06-07 01:14:12.624 +0000",1528334052.624461,0.691029,0.007602,0.029466,0.637312,-0.007602,-0.770569,0.000000,0.000000,0.000000,-1,0.003672,0.028761,0.039057,-0.016584,-0.008038,0.004196
"2018-06-07 01:14:12.635 +0000",1528334052.634535,0.691288,0.008001,0.029695,0.637510,-0.008001,-0.770401,0.000000,0.000000,0.000000,-1,0.006873,0.020011,0.033646,-0.019498,-0.006770,-0.000397
"2018-06-07 01:14:12.645 +0000",1528334052.644609,0.691459,0.008431,0.029858,0.637639,-0.008431,-0.770289,0.000000,0.000000,0.000000,-1,0.014264,0.013463,0.029308,-0.019887,-0.007087,-0.004171
"2018-06-07 01:14:12.655 +0000",1528334052.654683,0.691518,0.008839,0.029922,0.637682,-0.008839,-0.770249,0.000000,0.000000,0.000000,-1,0.020627,0.002530,0.022808,-0.018801,-0.005718,-0.004424
"2018-06-07 01:14:12.665 +0000",1528334052.664757,0.691490,0.009191,0.029930,0.637659,-0.009191,-0.770264,0.000000,0.000000,0.000000,-1,0.020675,-0.005132,0.017407,-0.015070,-0.005137,-0.004577
"2018-06-07 01:14:12.675 +0000",1528334052.674831,0.691397,0.009485,0.029882,0.637585,-0.009485,-0.770321,0.000000,0.000000,0.000000,-1,0.020737,-0.009491,0.009865,-0.011471,-0.004461,-0.007129
"2018-06-07 01:14:12.685 +0000",1528334052.684905,0.691240,0.009772,0.029767,0.637462,-0.009772,-0.770420,0.000000,0.000000,0.000000,-1,0.029170,-0.014943,0.006603,-0.006344,-0.004541,-0.011044
"2018-06-07 01:14:12.695 +0000",1528334052.694979,0.691051,0.010055,0.029613,0.637316,-0.010055,-0.770537,0.000000,0.000000,0.000000,-1,0.027086,-0.014940,0.004456,-0.000383,-0.006074,-0.011521
"2018-06-07 01:14:12.705 +0000",1528334052.705053,0.690852,0.010316,0.029438,0.637160,-0.010316,-0.770662,0.000000,0.000000,0.000000,-1,0.029210,-0.012725,0.001231,0.003495,-0.007064,-0.009886
"2018-06-07 01:14:12.715 +0000",1528334052.715127,0.690633,0.010559,0.029285,0.636989,-0.010559,-0.770800,0.000000,0.000000,0.000000,-1,0.026041,-0.011645,0.003392,0.008015,-0.007767,-0.009992
"2018-06-07 01:14:12.725 +0000",1528334052.725201,0.690415,0.010813,0.029126,0.636820,-0.010813,-0.770937,0.000000,0.000000,0.000000,-1,0.026047,-0.009445,0.002323,0.010137,-0.008611,-0.010268
"2018-06-07 01:14:12.735 +0000",1528334052.735275,0.690237,0.011017,0.029017,0.636682,-0.011017,-0.771048,0.000000,0.000000,0.000000,-1,0.019743,-0.007267,0.002344,0.011786,-0.012375,-0.010278
"2018-06-07 01:14:12.745 +0000",1528334052.745349,0.690123,0.011238,0.028940,0.636592,-0.011238,-0.771119,0.000000,0.000000,0.000000,-1,0.020747,-0.001798,0.007736,0.012578,-0.014717,-0.007629
"2018-06-07 01:14:12.755 +0000",1528334052.755423,0.690061,0.011430,0.028890,0.636543,-0.011430,-0.771157,0.000000,0.000000,0.000000,-1,0.016534,0.001479,0.008831,0.011712,-0.016692,-0.004219
"2018-06-07 01:14:12.765 +0000",1528334052.765497,0.690030,0.011635,0.028866,0.636517,-0.011635,-0.771175,0.000000,0.000000,0.000000,-1,0.017571,0.005869,0.009917,0.009479,-0.018150,-0.003514
"2018-06-07 01:14:12.776 +0000",1528334052.775571,0.690048,0.011883,0.028848,0.636529,-0.011883,-0.771161,0.000000,0.000000,0.000000,-1,0.018596,0.006956,0.013144,0.005362,-0.018864,-0.002231
"2018-06-07 01:14:12.786 +0000",1528334052.785645,0.690051,0.012155,0.028794,0.636530,-0.012155,-0.771156,0.000000,0.000000,0.000000,-1,0.020701,0.002571,0.013127,-0.000421,-0.017981,-0.002281
"2018-06-07 01:14:12.796 +0000",1528334052.795719,0.690031,0.012480,0.028733,0.636512,-0.012480,-0.771166,0.000000,0.000000,0.000000,-1,0.027000,-0.002905,0.014172,-0.004493,-0.017351,-0.005048
"2018-06-07 01:14:12.806 +0000",1528334052.805793,0.689980,0.012863,0.028663,0.636469,-0.012863,-0.771195,0.000000,0.000000,0.000000,-1,0.032247,-0.006188,0.015226,-0.007944,-0.015045,-0.003952
"2018-06-07 01:14:12.816 +0000",1528334052.815867,0.689903,0.013342,0.028601,0.636406,-0.013342,-0.771239,0.000000,0.000000,0.000000,-1,0.035335,-0.009509,0.023815,-0.010887,-0.011713,-0.000382
"2018-06-07 01:14:12.826 +0000",1528334052.825941,0.689855,0.013871,0.028551,0.636364,-0.013870,-0.771264,0.000000,0.000000,0.000000,-1,0.038475,-0.006211,0.024893,-0.012890,-0.011322,0.003426
"2018-06-07 01:14:12.836 +0000",1528334052.836015,0.689849,0.014462,0.028541,0.636354,-0.014461,-0.771261,0.000000,0.000000,0.000000,-1,0.039474,-0.005138,0.031347,-0.015444,-0.010960,0.006750
"2018-06-07 01:14:12.846 +0000",1528334052.846089,0.689846,0.015079,0.028514,0.636346,-0.015079,-0.771256,0.000000,0.000000,0.000000,-1,0.044743,-0.005114,0.029184,-0.018396,-0.009808,0.005082
"2018-06-07 01:14:12.856 +0000",1528334052.856164,0.689798,0.015749,0.028390,0.636303,-0.015748,-0.771279,0.000000,0.000000,0.000000,-1,0.054224,-0.008367,0.025926,-0.021923,-0.006362,-0.000038
"2018-06-07 01:14:12.866 +0000",1528334052.866237,0.689680,0.016467,0.028233,0.636204,-0.016466,-0.771345,0.000000,0.000000,0.000000,-1,0.059462,-0.011655,0.028056,-0.019459,-0.005766,0.000639
"2018-06-07 01:14:12.876 +0000",1528334052.876311,0.689583,0.017233,0.028095,0.636121,-0.017232,-0.771397,0.000000,0.000000,0.000000,-1,0.062575,-0.006176,0.032367,-0.015577,-0.005885,0.001713
"2018-06-07 01:14:12.886 +0000",1528334052.886385,0.689464,0.017985,0.027935,0.636021,-0.017984,-0.771462,0.000000,0.000000,0.000000,-1,0.063635,-0.007266,0.031286,-0.013752,-0.004721,-0.000938
"2018-06-07 01:14:12.896 +0000",1528334052.896459,0.689340,0.018719,0.027744,0.635917,-0.018718,-0.771531,0.000000,0.000000,0.000000,-1,0.064711,-0.008347,0.028053,-0.013038,-0.003636,-0.001052
"2018-06-07 01:14:12.907 +0000",1528334052.906533,0.689294,0.019419,0.027566,0.635873,-0.019418,-0.771550,0.000000,0.000000,0.000000,-1,0.062612,-0.001762,0.027002,-0.009942,-0.003883,0.003071
"2018-06-07 01:14:12.917 +0000",1528334052.916607,0.689216,0.020078,0.027390,0.635804,-0.020077,-0.771589,0.000000,0.000000,0.000000,-1,0.058421,-0.003965,0.025929,-0.005906,-0.002689,0.002043
"2018-06-07 01:14:12.927 +0000",1528334052.926681,0.689114,0.020685,0.027218,0.635717,-0.020684,-0.771645,0.000000,0.000000,0.000000,-1,0.053185,-0.002873,0.023793,-0.002371,-0.004127,-0.000511
"2018-06-07 01:14:12.937 +0000",1528334052.936755,0.688950,0.021246,0.027047,0.635583,-0.021244,-0.771740,0.000000,0.000000,0.000000,-1,0.053204,-0.006157,0.021632,0.000342,-0.008465,-0.001591
"2018-06-07 01:14:12.947 +0000",1528334052.946829,0.688816,0.021749,0.026894,0.635473,-0.021748,-0.771816,0.000000,0.000000,0.000000,-1,0.044816,-0.003976,0.019506,0.004099,-0.005154,-0.002354
"2018-06-07 01:14:12.957 +0000",1528334052.956904,0.688704,0.022245,0.026761,0.635380,-0.022244,-0.771879,0.000000,0.000000,0.000000,-1,0.045867,-0.005070,0.019501,0.008999,-0.002827,-0.004030
"2018-06-07 01:14:12.967 +0000",1528334052.966978,0.688591,0.022720,0.026635,0.635286,-0.022718,-0.771943,0.000000,0.000000,0.000000,-1,0.043759,-0.006179,0.020578,0.012114,-0.005083,-0.007140
"2018-06-07 01:14:12.977 +0000",1528334052.977052,0.688509,0.023168,0.026506,0.635216,-0.023166,-0.771987,0.000000,0.000000,0.000000,-1,0.040628,-0.000685,0.017374,0.011849,-0.007840,-0.004304
"2018-06-07 01:14:12.987 +0000",1528334052.987126,0.688487,0.023595,0.026397,0.635193,-0.023593,-0.771993,0.000000,0.000000,0.000000,-1,0.039567,0.001503,0.018459,0.011993,-0.011640,-0.004405
"2018-06-07 01:14:12.997 +0000",1528334052.997200,0.688458,0.023995,0.026270,0.635164,-0.023992,-0.772004,0.000000,0.000000,0.000000,-1,0.039604,-0.002870,0.014143,0.013685,-0.014185,-0.006148
"2018-06-07 01:14:13.007 +0000",1528334053.007274,0.688446,0.024400,0.026131,0.635149,-0.024398,-0.772004,0.000000,0.000000,0.000000,-1,0.040652,0.000426,0.014150,0.013853,-0.015123,-0.005843
"2018-06-07 01:14:13.017 +0000",1528334053.017348,0.688492,0.024820,0.025979,0.635178,-0.024817,-0.771967,0.000000,0.000000,0.000000,-1,0.039596,0.005912,0.014169,0.013153,-0.013055,-0.004217
"2018-06-07 01:14:13.027 +0000",1528334053.027422,0.688577,0.025244,0.025830,0.635236,-0.025241,-0.771905,0.000000,0.000000,0.000000,-1,0.040644,0.008111,0.014173,0.012224,-0.013867,-0.003165
"2018-06-07 01:14:13.037 +0000",1528334053.037496,0.688740,0.025621,0.025722,0.635357,-0.025618,-0.771794,0.000000,0.000000,0.000000,-1,0.034310,0.015764,0.017437,0.009678,-0.013536,-0.001766
"2018-06-07 01:14:13.048 +0000",1528334053.047570,0.688882,0.025970,0.025641,0.635460,-0.025967,-0.771697,0.000000,0.000000,0.000000,-1,0.029080,0.010269,0.015281,0.006538,-0.014087,0.000457
"2018-06-07 01:14:13.058 +0000",1528334053.057644,0.689040,0.026279,0.025599,0.635577,-0.026276,-0.771590,0.000000,0.000000,0.000000,-1,0.022776,0.012447,0.015302,0.004407,-0.015762,0.004378
"2018-06-07 01:14:13.068 +0000",1528334053.067718,0.689196,0.026568,0.025617,0.635692,-0.026565,-0.771485,0.000000,0.000000,0.000000,-1,0.016450,0.011318,0.018540,0.003483,-0.016709,0.005891
"2018-06-07 01:14:13.078 +0000",1528334053.077792,0.689305,0.026799,0.025689,0.635773,-0.026795,-0.771411,0.000000,0.000000,0.000000,-1,0.007017,0.006910,0.016398,0.003631,-0.016189,0.008792
"2018-06-07 01:14:13.088 +0000",1528334053.087866,0.689420,0.026982,0.025797,0.635858,-0.026979,-0.771334,0.000000,0.000000,0.000000,-1,-0.000329,0.009090,0.015345,0.005850,-0.014571,0.009249
"2018-06-07 01:14:13.098 +0000",1528334053.097940,0.689558,0.027123,0.025939,0.635962,-0.027120,-0.771243,0.000000,0.000000,0.000000,-1,-0.002439,0.010177,0.016429,0.006433,-0.012919,0.008838
"2018-06-07 01:14:13.108 +0000",1528334053.108014,0.689683,0.027255,0.026122,0.636057,-0.027252,-0.771161,0.000000,0.000000,0.000000,-1,-0.006664,0.009054,0.019662,0.004431,-0.010132,0.009290
"2018-06-07 01:14:13.118 +0000",1528334053.118088,0.689763,0.027379,0.026347,0.636116,-0.027376,-0.771108,0.000000,0.000000,0.000000,-1,-0.009820,0.005750,0.020738,0.003655,-0.009123,0.009557
"2018-06-07 01:14:13.128 +0000",1528334053.128162,0.689831,0.027493,0.026611,0.636166,-0.027490,-0.771062,0.000000,0.000000,0.000000,-1,-0.012995,0.004630,0.023969,0.003604,-0.007758,0.009938
"2018-06-07 01:14:13.138 +0000",1528334053.138236,0.689847,0.027620,0.026930,0.636176,-0.027617,-0.771049,0.000000,0.000000,0.000000,-1,-0.018273,-0.001989,0.028264,0.004540,-0.008181,0.010216
"2018-06-07 01:14:13.148 +0000",1528334053.148310,0.689868,0.027734,0.027292,0.636191,-0.027730,-0.771033,0.000000,0.000000,0.000000,-1,-0.020391,-0.002004,0.030420,0.004999,-0.008830,0.007178
"2018-06-07 01:14:13.158 +0000",1528334053.158384,0.689851,0.027808,0.027650,0.636176,-0.027805,-0.771043,0.000000,0.000000,0.000000,-1,-0.022438,-0.006374,0.023959,0.005044,-0.008389,0.003083
"2018-06-07 01:14:13.168 +0000",1528334053.168458,0.689807,0.027870,0.027968,0.636141,-0.027866,-0.771069,0.000000,0.000000,0.000000,-1,-0.019276,-0.008556,0.022869,0.005323,-0.006496,-0.002399
"2018-06-07 01:14:13.179 +0000",1528334053.178532,0.689755,0.027973,0.028231,0.636100,-0.027970,-0.771100,0.000000,0.000000,0.000000,-1,-0.014023,-0.009639,0.022854,0.004388,-0.004669,-0.007968
"2018-06-07 01:14:13.189 +0000",1528334053.188606,0.689711,0.028105,0.028445,0.636063,-0.028101,-0.771125,0.000000,0.000000,0.000000,-1,-0.004556,-0.007408,0.020688,0.003967,-0.003271,-0.010933
"2018-06-07 01:14:13.199 +0000",1528334053.198680,0.689711,0.028241,0.028588,0.636060,-0.028237,-0.771123,0.000000,0.000000,0.000000,-1,-0.000317,-0.002983,0.015313,0.000552,-0.003669,-0.009181
"2018-06-07 01:14:13.209 +0000",1528334053.208754,0.689735,0.028399,0.028707,0.636076,-0.028395,-0.771104,0.000000,0.000000,0.000000,-1,-0.000328,-0.000792,0.016395,-0.003904,-0.005556,-0.006667
"2018-06-07 01:14:13.219 +0000",1528334053.218828,0.689797,0.028549,0.028798,0.636121,-0.028546,-0.771061,0.000000,0.000000,0.000000,-1,0.002845,0.002524,0.013170,-0.007810,-0.007206,-0.004772
"2018-06-07 01:14:13.229 +0000",1528334053.228902,0.689818,0.028662,0.028881,0.636135,-0.028658,-0.771045,0.000000,0.000000,0.000000,-1,-0.000275,-0.004058,0.009931,-0.009518,-0.008803,-0.003766
"2018-06-07 01:14:13.239 +0000",1528334053.238976,0.689804,0.028752,0.028958,0.636123,-0.028748,-0.771052,0.000000,0.000000,0.000000,-1,-0.001317,-0.004056,0.008858,-0.009261,-0.009963,-0.003469
"2018-06-07 01:14:13.249 +0000",1528334053.249050,0.689774,0.028781,0.029022,0.636099,-0.028777,-0.771071,0.000000,0.000000,0.000000,-1,-0.004444,-0.002954,0.005641,-0.009115,-0.009660,-0.003618
"2018-06-07 01:14:13.259 +0000",1528334053.259124,0.689734,0.028805,0.029076,0.636068,-0.028801,-0.771095,0.000000,0.000000,0.000000,-1,-0.001285,-0.002941,0.004559,-0.007284,-0.009895,-0.004112
"2018-06-07 01:14:13.269 +0000",1528334053.269198,0.689717,0.028836,0.029155,0.636054,-0.028832,-0.771106,0.000000,0.000000,0.000000,-1,-0.003415,0.001431,0.007803,-0.005302,-0.010047,-0.004453
"2018-06-07 01:14:13.279 +0000",1528334053.279272,0.689725,0.028874,0.029223,0.636060,-0.028870,-0.771099,0.000000,0.000000,0.000000,-1,-0.002359,0.004732,0.006735,-0.004453,-0.011077,-0.005070
"2018-06-07 01:14:13.289 +0000",1528334053.289346,0.689781,0.028892,0.029325,0.636103,-0.028888,-0.771063,0.000000,0.000000,0.000000,-1,-0.005526,0.003616,0.008890,-0.004496,-0.011059,-0.005105
"2018-06-07 01:14:13.299 +0000",1528334053.299420,0.689764,0.028943,0.029441,0.636088,-0.028939,-0.771073,0.000000,0.000000,0.000000,-1,-0.008688,0.006896,0.009982,-0.001582,-0.011222,-0.002898
"2018-06-07 01:14:13.309 +0000",1528334053.309494,0.689810,0.028976,0.029586,0.636124,-0.028972,-0.771043,0.000000,0.000000,0.000000,-1,-0.011850,0.009078,0.011072,-0.000702,-0.011235,-0.001738
"2018-06-07 01:14:13.320 +0000",1528334053.319568,0.689875,0.028990,0.029752,0.636173,-0.028986,-0.771002,0.000000,0.000000,0.000000,-1,-0.012894,0.011275,0.010005,0.000408,-0.011786,-0.000895
"2018-06-07 01:14:13.330 +0000",1528334053.329642,0.689938,0.028978,0.029939,0.636222,-0.028973,-0.770962,0.000000,0.000000,0.000000,-1,-0.017097,0.012361,0.010017,0.000771,-0.011020,-0.001972
"2018-06-07 01:14:13.340 +0000",1528334053.339716,0.690005,0.028974,0.030160,0.636274,-0.028970,-0.770919,0.000000,0.000000,0.000000,-1,-0.018161,0.010154,0.012165,0.002352,-0.009756,-0.002412
"2018-06-07 01:14:13.350 +0000",1528334053.349790,0.690063,0.028974,0.030359,0.636318,-0.028970,-0.770883,0.000000,0.000000,0.000000,-1,-0.017102,0.009064,0.011084,0.002476,-0.009467,-0.002204
"2018-06-07 01:14:13.360 +0000",1528334053.359864,0.690132,0.028973,0.030568,0.636371,-0.028969,-0.770839,0.000000,0.000000,0.000000,-1,-0.017112,0.011255,0.012166,0.002255,-0.008293,-0.001241
"2018-06-07 01:14:13.370 +0000",1528334053.369938,0.690218,0.028972,0.030785,0.636438,-0.028968,-0.770784,0.000000,0.000000,0.000000,-1,-0.017121,0.012348,0.013244,0.002219,-0.007516,0.000902
"2018-06-07 01:14:13.380 +0000",1528334053.380012,0.690336,0.028971,0.031002,0.636529,-0.028967,-0.770709,0.000000,0.000000,0.000000,-1,-0.018170,0.010149,0.013240,0.001761,-0.007120,0.001528
"2018-06-07 01:14:13.390 +0000",1528334053.390086,0.690416,0.028966,0.031222,0.636591,-0.028962,-0.770658,0.000000,0.000000,0.000000,-1,-0.017127,0.010148,0.014314,0.001043,-0.007384,0.002423
"2018-06-07 01:14:13.400 +0000",1528334053.400160,0.690497,0.028967,0.031438,0.636653,-0.028963,-0.770606,0.000000,0.000000,0.000000,-1,-0.018176,0.007949,0.014310,-0.000240,-0.007032,0.001319
"2018-06-07 01:14:13.410 +0000",1528334053.410234,0.690554,0.028976,0.031659,0.636697,-0.028972,-0.770569,0.000000,0.000000,0.000000,-1,-0.015040,0.006851,0.016451,-0.000452,-0.006871,0.001298
"2018-06-07 01:14:13.420 +0000",1528334053.420308,0.690606,0.029007,0.031849,0.636736,-0.029003,-0.770536,0.000000,0.000000,0.000000,-1,-0.011871,0.005771,0.014289,-0.001223,-0.007694,-0.000018
"2018-06-07 01:14:13.430 +0000",1528334053.430382,0.690648,0.029035,0.032012,0.636768,-0.029031,-0.770509,0.000000,0.000000,0.000000,-1,-0.010788,0.005793,0.009984,-0.000919,-0.006812,-0.001083
"2018-06-07 01:14:13.440 +0000",1528334053.440456,0.690698,0.029085,0.032166,0.636806,-0.029081,-0.770475,0.000000,0.000000,0.000000,-1,-0.005560,0.004696,0.013196,-0.001445,-0.006579,-0.000887
"2018-06-07 01:14:13.451 +0000",1528334053.450530,0.690732,0.029127,0.032331,0.636831,-0.029123,-0.770453,0.000000,0.000000,0.000000,-1,-0.009760,0.003586,0.013202,-0.001364,-0.006720,-0.002038
"2018-06-07 01:14:13.461 +0000",1528334053.460604,0.690756,0.029157,0.032476,0.636849,-0.029153,-0.770437,0.000000,0.000000,0.000000,-1,-0.009726,0.002507,0.008896,-0.001565,-0.007087,-0.002436
"2018-06-07 01:14:13.471 +0000",1528334053.470678,0.690786,0.029216,0.032604,0.636871,-0.029212,-0.770416,0.000000,0.000000,0.000000,-1,-0.004490,0.001415,0.011032,-0.002396,-0.006570,-0.002517
"2018-06-07 01:14:13.481 +0000",1528334053.480752,0.690776,0.029254,0.032727,0.636863,-0.029250,-0.770422,0.000000,0.000000,0.000000,-1,-0.006589,-0.000787,0.011031,-0.002189,-0.005753,-0.002543
"2018-06-07 01:14:13.491 +0000",1528334053.490826,0.690772,0.029286,0.032834,0.636859,-0.029282,-0.770424,0.000000,0.000000,0.000000,-1,-0.005514,0.000327,0.007805,-0.003024,-0.006546,-0.001640
"2018-06-07 01:14:13.501 +0000",1528334053.500900,0.690773,0.029340,0.032932,0.636859,-0.029336,-0.770422,0.000000,0.000000,0.000000,-1,-0.005523,0.000323,0.008880,-0.002719,-0.007453,-0.001749
"2018-06-07 01:14:13.511 +0000",1528334053.510974,0.690762,0.029393,0.033007,0.636850,-0.029388,-0.770428,0.000000,0.000000,0.000000,-1,-0.002347,0.000345,0.005646,-0.002908,-0.007355,-0.002628
"2018-06-07 01:14:13.521 +0000",1528334053.521048,0.690772,0.029448,0.033079,0.636856,-0.029444,-0.770420,0.000000,0.000000,0.000000,-1,-0.001306,0.001441,0.006723,-0.004181,-0.007315,-0.002697
"2018-06-07 01:14:13.531 +0000",1528334053.531122,0.690775,0.029521,0.033122,0.636857,-0.029517,-0.770416,0.000000,0.000000,0.000000,-1,-0.000247,0.001449,0.005645,-0.004960,-0.007303,-0.001007
"2018-06-07 01:14:13.541 +0000",1528334053.541196,0.690749,0.029610,0.033167,0.636836,-0.029606,-0.770431,0.000000,0.000000,0.000000,-1,0.002890,-0.001845,0.007779,-0.004603,-0.007000,-0.002472
"2018-06-07 01:14:13.551 +0000",1528334053.551270,0.690732,0.029668,0.033193,0.636821,-0.029664,-0.770441,0.000000,0.000000,0.000000,-1,-0.000229,-0.000738,0.003487,-0.003688,-0.007216,-0.003088
"2018-06-07 01:14:13.561 +0000",1528334053.561344,0.690727,0.029712,0.033215,0.636816,-0.029708,-0.770443,0.000000,0.000000,0.000000,-1,-0.000222,0.001462,0.002418,-0.003180,-0.006501,-0.003071
"2018-06-07 01:14:13.571 +0000",1528334053.571417,0.690743,0.029767,0.033229,0.636828,-0.029763,-0.770431,0.000000,0.000000,0.000000,-1,0.002926,0.003667,0.002417,-0.002734,-0.006645,-0.003266
"2018-06-07 01:14:13.581 +0000",1528334053.581491,0.690805,0.029834,0.033245,0.636874,-0.029829,-0.770390,0.000000,0.000000,0.000000,-1,0.001858,0.004753,0.004574,-0.002826,-0.006365,-0.003978
"2018-06-07 01:14:13.592 +0000",1528334053.591566,0.690841,0.029911,0.033258,0.636901,-0.029907,-0.770366,0.000000,0.000000,0.000000,-1,0.003959,0.004758,0.004569,-0.003096,-0.008530,-0.002767
"2018-06-07 01:14:13.602 +0000",1528334053.601639,0.690883,0.029977,0.033309,0.636932,-0.029973,-0.770337,0.000000,0.000000,0.000000,-1,-0.000268,0.005831,0.007809,-0.002593,-0.008311,-0.000659
"2018-06-07 01:14:13.612 +0000",1528334053.611713,0.690932,0.030023,0.033376,0.636968,-0.030019,-0.770305,0.000000,0.000000,0.000000,-1,-0.003413,0.008022,0.006747,-0.002386,-0.006999,0.000133
"2018-06-07 01:14:13.622 +0000",1528334053.621788,0.690977,0.030042,0.033437,0.637003,-0.030038,-0.770276,0.000000,0.000000,0.000000,-1,-0.005488,0.006932,0.003521,-0.000528,-0.007239,-0.000934
"2018-06-07 01:14:13.632 +0000",1528334053.631861,0.690991,0.030042,0.033514,0.637013,-0.030037,-0.770267,0.000000,0.000000,0.000000,-1,-0.006533,0.001440,0.003508,0.001140,-0.006843,-0.001446
"2018-06-07 01:14:13.642 +0000",1528334053.641935,0.691017,0.030033,0.033568,0.637034,-0.030028,-0.770250,0.000000,0.000000,0.000000,-1,-0.006518,0.003645,0.001363,0.000509,-0.006685,-0.001692
"2018-06-07 01:14:13.652 +0000",1528334053.652009,0.691051,0.030021,0.033618,0.637060,-0.030016,-0.770229,0.000000,0.000000,0.000000,-1,-0.006522,0.006938,0.001372,0.001810,-0.006590,-0.003086
"2018-06-07 01:14:13.662 +0000",1528334053.662083,0.691093,0.030011,0.033679,0.637093,-0.030006,-0.770203,0.000000,0.000000,0.000000,-1,-0.005488,0.006932,0.003521,0.001899,-0.006737,-0.002807
"2018-06-07 01:14:13.672 +0000",1528334053.672157,0.691154,0.029990,0.033750,0.637140,-0.029986,-0.770165,0.000000,0.000000,0.000000,-1,-0.007591,0.009122,0.003532,0.000021,-0.006208,-0.000893
"2018-06-07 01:14:13.682 +0000",1528334053.682231,0.691221,0.029999,0.033832,0.637192,-0.029994,-0.770121,0.000000,0.000000,0.000000,-1,-0.008639,0.006923,0.003528,-0.001831,-0.006581,-0.000341
"2018-06-07 01:14:13.692 +0000",1528334053.692305,0.691292,0.030026,0.033893,0.637246,-0.030022,-0.770076,0.000000,0.000000,0.000000,-1,-0.004447,0.008028,0.004598,-0.001229,-0.006416,-0.000936
"2018-06-07 01:14:13.702 +0000",1528334053.702379,0.691371,0.030072,0.033960,0.637305,-0.030068,-0.770024,0.000000,0.000000,0.000000,-1,-0.003403,0.005831,0.005665,-0.001319,-0.006340,-0.001567
"2018-06-07 01:14:13.712 +0000",1528334053.712453,0.691438,0.030146,0.033995,0.637356,-0.030141,-0.769980,0.000000,0.000000,0.000000,-1,0.002900,0.005849,0.005650,-0.001278,-0.006449,-0.002298
"2018-06-07 01:14:13.723 +0000",1528334053.722527,0.691502,0.030211,0.034030,0.637404,-0.030206,-0.769938,0.000000,0.000000,0.000000,-1,0.000807,0.005847,0.004579,-0.001524,-0.007849,-0.002707
"2018-06-07 01:14:13.733 +0000",1528334053.732601,0.691529,0.030260,0.034055,0.637423,-0.030255,-0.769920,0.000000,0.000000,0.000000,-1,-0.000240,0.002551,0.004572,-0.001071,-0.007449,-0.002786
"2018-06-07 01:14:13.743 +0000",1528334053.742675,0.691545,0.030314,0.034077,0.637435,-0.030309,-0.769908,0.000000,0.000000,0.000000,-1,0.002930,0.000374,0.002407,-0.001266,-0.007136,-0.003270
"2018-06-07 01:14:13.753 +0000",1528334053.752749,0.691567,0.030359,0.034083,0.637451,-0.030355,-0.769893,0.000000,0.000000,0.000000,-1,0.001894,0.002575,0.000265,-0.001160,-0.007518,-0.001805
"2018-06-07 01:14:13.763 +0000",1528334053.762823,0.691595,0.030397,0.034104,0.637472,-0.030393,-0.769874,0.000000,0.000000,0.000000,-1,-0.002317,0.003657,0.001353,-0.002203,-0.007693,-0.000436
"2018-06-07 01:14:13.773 +0000",1528334053.772897,0.691624,0.030431,0.034120,0.637494,-0.030427,-0.769854,0.000000,0.000000,0.000000,-1,-0.001275,0.003655,0.002426,-0.003369,-0.008026,0.000354
"2018-06-07 01:14:13.783 +0000",1528334053.782971,0.691635,0.030482,0.034150,0.637501,-0.030478,-0.769846,0.000000,0.000000,0.000000,-1,0.001860,0.003655,0.004570,-0.001347,-0.006799,-0.000799
"2018-06-07 01:14:13.793 +0000",1528334053.793045,0.691660,0.030532,0.034202,0.637519,-0.030527,-0.769830,0.000000,0.000000,0.000000,-1,-0.001300,0.003641,0.005653,-0.000816,-0.006033,-0.001228
"2018-06-07 01:14:13.803 +0000",1528334053.803119,0.691693,0.030590,0.034267,0.637544,-0.030585,-0.769807,0.000000,0.000000,0.000000,-1,-0.001302,0.005837,0.005660,-0.000673,-0.006799,-0.000167
"2018-06-07 01:14:13.813 +0000",1528334053.813193,0.691745,0.030643,0.034319,0.637583,-0.030638,-0.769772,0.000000,0.000000,0.000000,-1,-0.001312,0.008028,0.006742,-0.001413,-0.005754,-0.000751
"2018-06-07 01:14:13.823 +0000",1528334053.823267,0.691784,0.030696,0.034399,0.637611,-0.030692,-0.769747,0.000000,0.000000,0.000000,-1,-0.004468,0.004721,0.007815,-0.001594,-0.005197,-0.000883
"2018-06-07 01:14:13.833 +0000",1528334053.833341,0.691827,0.030739,0.034446,0.637644,-0.030734,-0.769718,0.000000,0.000000,0.000000,-1,-0.002336,0.005843,0.003511,-0.002863,-0.004880,0.000004
"2018-06-07 01:14:13.843 +0000",1528334053.843415,0.691864,0.030799,0.034515,0.637671,-0.030794,-0.769693,0.000000,0.000000,0.000000,-1,-0.001325,0.003628,0.008880,-0.003058,-0.005628,-0.001273
"2018-06-07 01:14:13.853 +0000",1528334053.853489,0.691884,0.030851,0.034563,0.637685,-0.030846,-0.769679,0.000000,0.000000,0.000000,-1,-0.000250,0.004742,0.005654,-0.002691,-0.006034,-0.002217
"2018-06-07 01:14:13.864 +0000",1528334053.863563,0.691885,0.030910,0.034601,0.637685,-0.030905,-0.769677,0.000000,0.000000,0.000000,-1,-0.000240,0.002551,0.004572,-0.002950,-0.006509,-0.002250
"2018-06-07 01:14:13.874 +0000",1528334053.873637,0.691898,0.030955,0.034634,0.637694,-0.030951,-0.769668,0.000000,0.000000,0.000000,-1,-0.001295,-0.000750,0.005641,-0.002532,-0.006052,-0.000993
"2018-06-07 01:14:13.884 +0000",1528334053.883711,0.691908,0.030995,0.034681,0.637701,-0.030990,-0.769660,0.000000,0.000000,0.000000,-1,-0.000240,0.002551,0.004572,-0.001715,-0.005036,-0.001061
"2018-06-07 01:14:13.894 +0000",1528334053.893785,0.691937,0.031020,0.034716,0.637723,-0.031015,-0.769641,0.000000,0.000000,0.000000,-1,-0.002341,0.002545,0.004577,-0.000897,-0.006171,-0.002088
"2018-06-07 01:14:13.904 +0000",1528334053.903859,0.691944,0.031052,0.034737,0.637728,-0.031047,-0.769636,0.000000,0.000000,0.000000,-1,-0.000221,0.000365,0.002414,-0.001268,-0.006276,-0.002230
"2018-06-07 01:14:13.914 +0000",1528334053.913933,0.691939,0.031087,0.034746,0.637723,-0.031082,-0.769638,0.000000,0.000000,0.000000,-1,-0.000220,-0.000733,0.002411,-0.000699,-0.006531,-0.001815
"2018-06-07 01:14:13.924 +0000",1528334053.924007,0.691941,0.031106,0.034765,0.637724,-0.031101,-0.769637,0.000000,0.000000,0.000000,-1,-0.001267,0.003660,0.001351,-0.000334,-0.006939,-0.002321
"2018-06-07 01:14:13.934 +0000",1528334053.934081,0.691953,0.031148,0.034787,0.637733,-0.031143,-0.769628,0.000000,0.000000,0.000000,-1,0.000827,0.002563,0.002418,-0.001487,-0.005417,-0.003215
"2018-06-07 01:14:13.944 +0000",1528334053.944155,0.691937,0.031177,0.034814,0.637719,-0.031172,-0.769638,0.000000,0.000000,0.000000,-1,-0.001273,0.001460,0.002420,-0.001245,-0.005983,-0.001801
"2018-06-07 01:14:13.954 +0000",1528334053.954229,0.691930,0.031208,0.034838,0.637714,-0.031203,-0.769641,0.000000,0.000000,0.000000,-1,-0.001272,0.000362,0.002417,-0.001636,-0.005815,-0.003156
"2018-06-07 01:14:13.964 +0000",1528334053.964303,0.691926,0.031235,0.034862,0.637710,-0.031230,-0.769643,0.000000,0.000000,0.000000,-1,-0.000220,-0.000733,0.002411,-0.001418,-0.006490,-0.002131
"2018-06-07 01:14:13.974 +0000",1528334053.974377,0.691943,0.031285,0.034884,0.637723,-0.031280,-0.769631,0.000000,0.000000,0.000000,-1,0.000817,0.003656,0.003497,-0.001172,-0.006989,-0.001213
"2018-06-07 01:14:13.984 +0000",1528334053.984451,0.691977,0.031329,0.034897,0.637747,-0.031323,-0.769608,0.000000,0.000000,0.000000,-1,0.000826,0.003661,0.002422,-0.001730,-0.006350,-0.000960
"2018-06-07 01:14:13.995 +0000",1528334053.994525,0.692029,0.031373,0.034911,0.637787,-0.031368,-0.769574,0.000000,0.000000,0.000000,-1,0.000814,0.006950,0.003507,-0.002182,-0.006810,-0.001559
"2018-06-07 01:14:14.005 +0000",1528334054.004599,0.692042,0.031406,0.034943,0.637796,-0.031400,-0.769565,0.000000,0.000000,0.000000,-1,-0.001273,0.001460,0.002420,-0.001306,-0.007067,-0.001583
"2018-06-07 01:14:14.015 +0000",1528334054.014673,0.692032,0.031421,0.034977,0.637788,-0.031416,-0.769571,0.000000,0.000000,0.000000,-1,-0.003363,-0.000737,0.001343,-0.002962,-0.006304,-0.001715
"2018-06-07 01:14:14.025 +0000",1528334054.024747,0.692027,0.031443,0.035007,0.637784,-0.031438,-0.769573,0.000000,0.000000,0.000000,-1,-0.001279,-0.000740,0.003489,-0.002286,-0.007304,-0.002964
"2018-06-07 01:14:14.035 +0000",1528334054.034821,0.692028,0.031448,0.035051,0.637785,-0.031443,-0.769573,0.000000,0.000000,0.000000,-1,-0.003383,0.002547,0.003504,-0.002317,-0.007040,-0.001927
"2018-06-07 01:14:14.045 +0000",1528334054.044895,0.692045,0.031454,0.035069,0.637797,-0.031449,-0.769562,0.000000,0.000000,0.000000,-1,-0.002307,0.001466,0.000271,-0.002711,-0.005920,-0.001510
"2018-06-07 01:14:14.055 +0000",1528334054.054969,0.692068,0.031471,0.035106,0.637815,-0.031466,-0.769546,0.000000,0.000000,0.000000,-1,-0.003375,0.002551,0.002428,-0.002500,-0.004835,-0.002762
"2018-06-07 01:14:14.065 +0000",1528334054.065043,0.692108,0.031494,0.035144,0.637845,-0.031489,-0.769521,0.000000,0.000000,0.000000,-1,-0.002326,0.004750,0.002432,-0.002210,-0.004949,-0.002543
"2018-06-07 01:14:14.075 +0000",1528334054.075117,0.692145,0.031527,0.035168,0.637873,-0.031522,-0.769496,0.000000,0.000000,0.000000,-1,-0.000226,0.004756,0.002427,-0.002238,-0.005176,-0.002766
"2018-06-07 01:14:14.085 +0000",1528334054.085191,0.692190,0.031568,0.035201,0.637907,-0.031563,-0.769466,0.000000,0.000000,0.000000,-1,0.000825,0.004759,0.002425,-0.002775,-0.005547,-0.002537
"2018-06-07 01:14:14.095 +0000",1528334054.095265,0.692230,0.031595,0.035228,0.637937,-0.031590,-0.769440,0.000000,0.000000,0.000000,-1,-0.001285,0.005846,0.003508,-0.002668,-0.005428,-0.001525
"2018-06-07 01:14:14.105 +0000",1528334054.105339,0.692259,0.031625,0.035256,0.637958,-0.031620,-0.769421,0.000000,0.000000,0.000000,-1,-0.002335,0.004745,0.003508,-0.002125,-0.004482,-0.000964
"2018-06-07 01:14:14.115 +0000",1528334054.115413,0.692289,0.031643,0.035278,0.637981,-0.031638,-0.769402,0.000000,0.000000,0.000000,-1,-0.002316,0.002559,0.001350,-0.001720,-0.004983,-0.001762
"2018-06-07 01:14:14.125 +0000",1528334054.125487,0.692309,0.031678,0.035291,0.637996,-0.031672,-0.769388,0.000000,0.000000,0.000000,-1,0.000834,0.003666,0.001347,-0.002101,-0.004644,-0.002203
"2018-06-07 01:14:14.136 +0000",1528334054.135561,0.692316,0.031705,0.035292,0.638001,-0.031700,-0.769383,0.000000,0.000000,0.000000,-1,0.000834,0.003666,0.001347,-0.001572,-0.005120,-0.001033
"2018-06-07 01:14:14.146 +0000",1528334054.145635,0.692319,0.031722,0.035288,0.638003,-0.031716,-0.769381,0.000000,0.000000,0.000000,-1,0.000843,0.002573,0.000268,-0.000933,-0.005408,-0.000333
"2018-06-07 01:14:14.156 +0000",1528334054.155709,0.692310,0.031754,0.035294,0.637995,-0.031748,-0.769386,0.000000,0.000000,0.000000,-1,0.000855,-0.000715,-0.000817,-0.000925,-0.005376,-0.000924
"2018-06-07 01:14:14.166 +0000",1528334054.165783,0.692306,0.031783,0.035295,0.637991,-0.031778,-0.769388,0.000000,0.000000,0.000000,-1,0.001877,0.002567,0.002417,-0.000052,-0.005057,-0.001517
"2018-06-07 01:14:14.176 +0000",1528334054.175857,0.692305,0.031810,0.035284,0.637990,-0.031804,-0.769387,0.000000,0.000000,0.000000,-1,0.001912,0.000390,-0.001892,0.000010,-0.005457,-0.002051
"2018-06-07 01:14:14.186 +0000",1528334054.185931,0.692301,0.031840,0.035282,0.637987,-0.031835,-0.769389,0.000000,0.000000,0.000000,-1,0.000845,0.000378,0.000262,-0.000017,-0.005916,-0.001790
"2018-06-07 01:14:14.196 +0000",1528334054.196005,0.692302,0.031868,0.035276,0.637987,-0.031863,-0.769387,0.000000,0.000000,0.000000,-1,0.000843,0.002573,0.000268,-0.000246,-0.005292,-0.001166
"2018-06-07 01:14:14.206 +0000",1528334054.206079,0.692318,0.031891,0.035280,0.637999,-0.031885,-0.769377,0.000000,0.000000,0.000000,-1,-0.000224,0.002561,0.002422,-0.000807,-0.005682,-0.000566
"2018-06-07 01:14:14.216 +0000",1528334054.216153,0.692342,0.031924,0.035305,0.638017,-0.031919,-0.769361,0.000000,0.000000,0.000000,-1,-0.000226,0.004757,0.002428,-0.000978,-0.005084,0.000623
"2018-06-07 01:14:14.226 +0000",1528334054.226227,0.692370,0.031963,0.035318,0.638037,-0.031958,-0.769342,0.000000,0.000000,0.000000,-1,0.000816,0.004755,0.003501,-0.001837,-0.006357,-0.000052
"2018-06-07 01:14:14.236 +0000",1528334054.236301,0.692369,0.031998,0.035335,0.638036,-0.031993,-0.769342,0.000000,0.000000,0.000000,-1,0.000829,0.000369,0.002413,-0.001469,-0.007283,-0.001166
"2018-06-07 01:14:14.246 +0000",1528334054.246375,0.692358,0.031996,0.035333,0.638027,-0.031990,-0.769349,0.000000,0.000000,0.000000,-1,-0.001238,-0.000717,-0.001888,-0.002697,-0.005546,-0.001830
"2018-06-07 01:14:14.256 +0000",1528334054.256449,0.692368,0.032008,0.035355,0.638035,-0.032002,-0.769342,0.000000,0.000000,0.000000,-1,-0.002316,0.002560,0.001351,-0.002308,-0.005748,-0.000540
"2018-06-07 01:14:14.267 +0000",1528334054.266523,0.692346,0.032027,0.035351,0.638017,-0.032022,-0.769356,0.000000,0.000000,0.000000,-1,0.000856,-0.001813,-0.000820,-0.001237,-0.005790,-0.002403
"2018-06-07 01:14:14.277 +0000",1528334054.276597,0.692329,0.032035,0.035369,0.638004,-0.032030,-0.769366,0.000000,0.000000,0.000000,-1,-0.001262,-0.000730,0.001339,-0.001347,-0.004866,-0.001431
"2018-06-07 01:14:14.287 +0000",1528334054.286671,0.692340,0.032052,0.035387,0.638012,-0.032046,-0.769359,0.000000,0.000000,0.000000,-1,-0.001265,0.001465,0.001345,-0.000821,-0.004453,0.000102
"2018-06-07 01:14:14.297 +0000",1528334054.296745,0.692342,0.032063,0.035402,0.638014,-0.032058,-0.769357,0.000000,0.000000,0.000000,-1,-0.001272,0.000363,0.002418,-0.001219,-0.005555,-0.001608
"2018-06-07 01:14:14.307 +0000",1528334054.306819,0.692358,0.032095,0.035410,0.638025,-0.032089,-0.769347,0.000000,0.000000,0.000000,-1,0.000835,0.002569,0.001344,-0.002939,-0.004807,-0.002534
"2018-06-07 01:14:14.317 +0000",1528334054.316893,0.692372,0.032128,0.035426,0.638035,-0.032123,-0.769337,0.000000,0.000000,0.000000,-1,0.000835,0.002569,0.001344,-0.003132,-0.005536,-0.001827
"2018-06-07 01:14:14.327 +0000",1528334054.326967,0.692358,0.032166,0.035463,0.638024,-0.032160,-0.769345,0.000000,0.000000,0.000000,-1,-0.000238,0.000357,0.004567,-0.002922,-0.005804,-0.002185
"2018-06-07 01:14:14.337 +0000",1528334054.337041,0.692355,0.032195,0.035471,0.638021,-0.032189,-0.769346,0.000000,0.000000,0.000000,-1,0.000845,0.000378,0.000262,-0.002751,-0.005088,-0.002596
"2018-06-07 01:14:14.347 +0000",1528334054.347115,0.692350,0.032209,0.035471,0.638017,-0.032203,-0.769349,0.000000,0.000000,0.000000,-1,-0.000198,0.001477,-0.000808,-0.002840,-0.005348,-0.002182
"2018-06-07 01:14:14.357 +0000",1528334054.357189,0.692370,0.032213,0.035469,0.638032,-0.032207,-0.769336,0.000000,0.000000,0.000000,-1,-0.001248,0.001474,-0.000806,-0.002183,-0.005482,-0.002240
"2018-06-07 01:14:14.367 +0000",1528334054.367263,0.692383,0.032220,0.035465,0.638042,-0.032214,-0.769327,0.000000,0.000000,0.000000,-1,-0.000199,0.002575,-0.000805,-0.003109,-0.004575,-0.003515
"2018-06-07 01:14:14.377 +0000",1528334054.377336,0.692408,0.032245,0.035469,0.638061,-0.032239,-0.769311,0.000000,0.000000,0.000000,-1,0.001885,0.002572,0.001341,-0.002807,-0.004062,-0.002967
"2018-06-07 01:14:14.387 +0000",1528334054.387410,0.692422,0.032282,0.035475,0.638070,-0.032276,-0.769301,0.000000,0.000000,0.000000,-1,0.000827,0.002564,0.002419,-0.003198,-0.004971,-0.000459
"2018-06-07 01:14:14.397 +0000",1528334054.397484,0.692474,0.032355,0.035481,0.638109,-0.032350,-0.769266,0.000000,0.000000,0.000000,-1,0.005016,0.006962,0.003498,-0.004519,-0.006438,0.000574
"2018-06-07 01:14:14.408 +0000",1528334054.407558,0.692514,0.032419,0.035517,0.638139,-0.032414,-0.769239,0.000000,0.000000,0.000000,-1,0.002891,0.005845,0.006727,-0.005006,-0.007854,0.000379
"2018-06-07 01:14:14.418 +0000",1528334054.417632,0.692549,0.032450,0.035557,0.638165,-0.032445,-0.769216,0.000000,0.000000,0.000000,-1,-0.003385,0.004743,0.003511,-0.002956,-0.006877,-0.000330
"2018-06-07 01:14:14.428 +0000",1528334054.427706,0.692578,0.032448,0.035597,0.638187,-0.032443,-0.769198,0.000000,0.000000,0.000000,-1,-0.004427,0.004745,0.002438,-0.001499,-0.005063,-0.001844
