timestamp,timeIntervalSince1970,attitude.roll,attitude.pitch,attitude.yaw,gravity.x,gravity.y,gravity.z,magneticField.x,magneticField.y,magneticField.z,magneticField.accuracy,rotationRate.x,rotationRate.y,rotationRate.z,userAcceleration.x,userAcceleration.y,userAcceleration.z
"2018-06-07 01:17:13.149 +0000",1528334233.149392,0.002810,0.532817,-0.001427,0.002421,-0.507962,-0.861376,0.000000,0.000000,0.000000,-1,-2.518475,1.766866,0.488285,-0.015619,0.186230,-0.031873
"2018-06-07 01:17:13.159 +0000",1528334233.159466,0.019226,0.506773,0.004151,0.016808,-0.485359,-0.874153,0.000000,0.000000,0.000000,-1,-2.612811,1.940247,0.441677,-0.016381,0.147636,0.023903
"2018-06-07 01:17:13.170 +0000",1528334233.169540,0.035653,0.479832,0.009614,0.031621,-0.461630,-0.886509,0.000000,0.000000,0.000000,-1,-2.711019,1.823836,0.387781,-0.057072,0.134420,0.001575
"2018-06-07 01:17:13.180 +0000",1528334233.179614,0.047319,0.452611,0.014071,0.042539,-0.437316,-0.898301,0.000000,0.000000,0.000000,-1,-2.698679,1.165868,0.229870,-0.176603,0.205535,-0.147322
"2018-06-07 01:17:13.190 +0000",1528334233.189688,0.052621,0.427385,0.015384,0.047866,-0.414493,-0.908793,0.000000,0.000000,0.000000,-1,-2.423415,0.390770,-0.094633,-0.235610,0.292896,-0.267202
"2018-06-07 01:17:13.200 +0000",1528334233.199762,0.051554,0.405722,0.013336,0.047348,-0.394682,-0.917597,0.000000,0.000000,0.000000,-1,-2.040477,-0.376618,-0.353746,-0.165298,0.238524,-0.307302
"2018-06-07 01:17:13.210 +0000",1528334233.209836,0.045850,0.387521,0.009629,0.042436,-0.377894,-0.924876,0.000000,0.000000,0.000000,-1,-1.711808,-0.759597,-0.431983,-0.086076,0.211024,-0.309148
"2018-06-07 01:17:13.220 +0000",1528334233.219910,0.041437,0.371791,0.006921,0.038595,-0.363285,-0.930878,0.000000,0.000000,0.000000,-1,-1.502345,-0.421628,-0.258301,0.052042,0.264652,-0.172958
"2018-06-07 01:17:13.230 +0000",1528334233.229984,0.041548,0.357113,0.007985,0.038915,-0.349570,-0.936101,0.000000,0.000000,0.000000,-1,-1.466192,0.218949,0.152225,0.158762,0.295249,-0.099909
"2018-06-07 01:17:13.240 +0000",1528334233.240058,0.047903,0.341966,0.013885,0.045112,-0.335340,-0.941016,0.000000,0.000000,0.000000,-1,-1.545965,1.045710,0.590449,0.223900,0.293974,-0.071969
"2018-06-07 01:17:13.250 +0000",1528334233.250132,0.061318,0.326513,0.023855,0.058042,-0.320742,-0.945387,0.000000,0.000000,0.000000,-1,-1.591309,1.837866,0.926307,0.251391,0.237307,-0.054720
"2018-06-07 01:17:13.260 +0000",1528334233.260206,0.078647,0.311242,0.036212,0.074792,-0.306241,-0.949011,0.000000,0.000000,0.000000,-1,-1.589627,2.143505,1.079934,0.159049,0.160749,-0.092432
"2018-06-07 01:17:13.270 +0000",1528334233.270280,0.094483,0.297089,0.048420,0.090210,-0.292738,-0.951928,0.000000,0.000000,0.000000,-1,-1.456343,1.813790,0.997996,0.143631,0.147246,-0.089515
"2018-06-07 01:17:13.280 +0000",1528334233.280354,0.105097,0.285112,0.058743,0.100669,-0.281265,-0.954335,0.000000,0.000000,0.000000,-1,-1.222183,1.192793,0.809567,-0.125053,0.202148,-0.292537
"2018-06-07 01:17:13.290 +0000",1528334233.290428,0.111439,0.275273,0.067041,0.107022,-0.271810,-0.956381,0.000000,0.000000,0.000000,-1,-1.004132,0.773654,0.642199,-0.158642,0.304098,-0.279962
"2018-06-07 01:17:13.301 +0000",1528334233.300503,0.116626,0.267459,0.074077,0.112224,-0.264282,-0.957894,0.000000,0.000000,0.000000,-1,-0.796603,0.707567,0.570539,-0.082866,0.405777,-0.217750
"2018-06-07 01:17:13.311 +0000",1528334233.310577,0.124160,0.261002,0.081645,0.119647,-0.258049,-0.958695,0.000000,0.000000,0.000000,-1,-0.711675,1.059716,0.683236,0.037137,0.436302,-0.118240
"2018-06-07 01:17:13.321 +0000",1528334233.320651,0.136382,0.254577,0.091770,0.131578,-0.251836,-0.958784,0.000000,0.000000,0.000000,-1,-0.778330,1.560061,0.958058,0.139769,0.450200,0.020216
"2018-06-07 01:17:13.331 +0000",1528334233.330725,0.139255,0.249585,0.104963,0.134504,-0.247002,-0.959635,0.000000,0.000000,0.000000,-1,-0.596416,0.049890,1.254429,0.136843,0.445366,0.021066
"2018-06-07 01:17:13.341 +0000",1528334233.340799,0.120335,0.244553,0.119323,0.116473,-0.242123,-0.963229,0.000000,0.000000,0.000000,-1,-0.767222,-1.990509,1.317725,0.100247,0.339184,0.208911
"2018-06-07 01:17:13.351 +0000",1528334233.350873,0.091294,0.232737,0.136083,0.088709,-0.230641,-0.968987,0.000000,0.000000,0.000000,-1,-1.537474,-2.530506,1.567468,0.113821,0.262944,0.609703
"2018-06-07 01:17:13.361 +0000",1528334233.360947,0.062317,0.215302,0.156577,0.060838,-0.213643,-0.975016,0.000000,0.000000,0.000000,-1,-1.932205,-2.359679,1.931361,0.261870,0.264531,0.419657
"2018-06-07 01:17:13.371 +0000",1528334233.371021,0.037655,0.197885,0.178972,0.036912,-0.196596,-0.979789,0.000000,0.000000,0.000000,-1,-1.776624,-1.850692,2.125026,0.188476,0.340288,0.047676
"2018-06-07 01:17:13.381 +0000",1528334233.381095,0.019016,0.182603,0.202309,0.018699,-0.181590,-0.983197,0.000000,0.000000,0.000000,-1,-1.511481,-1.268731,2.267021,0.140939,0.256800,-0.080875
"2018-06-07 01:17:13.391 +0000",1528334233.391169,0.006943,0.169768,0.226602,0.006843,-0.168954,-0.985600,0.000000,0.000000,0.000000,-1,-1.233598,-0.605383,2.381258,0.145668,0.135735,-0.100200
"2018-06-07 01:17:13.401 +0000",1528334233.401243,0.002938,0.159570,0.251428,0.002900,-0.158894,-0.987291,0.000000,0.000000,0.000000,-1,-0.952314,0.233846,2.441139,0.146270,0.094059,-0.154051
"2018-06-07 01:17:13.411 +0000",1528334233.411317,0.008979,0.152379,0.276782,0.008875,-0.151790,-0.988373,0.000000,0.000000,0.000000,-1,-0.652251,1.247692,2.496108,0.178290,0.088390,-0.204330
"2018-06-07 01:17:13.421 +0000",1528334233.421391,0.024008,0.148108,0.302808,0.023743,-0.147567,-0.988767,0.000000,0.000000,0.000000,-1,-0.402480,2.013242,2.565529,0.249175,0.051666,-0.186770
"2018-06-07 01:17:13.431 +0000",1528334233.431465,0.039024,0.146833,0.329774,0.038594,-0.146306,-0.988486,0.000000,0.000000,0.000000,-1,-0.152064,1.782952,2.674001,0.310313,-0.060786,-0.145623
"2018-06-07 01:17:13.442 +0000",1528334233.441539,0.048377,0.147311,0.358647,0.047834,-0.146779,-0.988012,0.000000,0.000000,0.000000,-1,-0.075518,1.194910,2.900152,0.327303,-0.138911,0.018224
"2018-06-07 01:17:13.452 +0000",1528334233.451613,0.050357,0.146985,0.389966,0.049793,-0.146457,-0.987963,0.000000,0.000000,0.000000,-1,-0.235093,0.467933,3.116759,0.333462,-0.071881,0.172564
"2018-06-07 01:17:13.462 +0000",1528334233.461687,0.045460,0.143775,0.422339,0.044975,-0.143280,-0.988660,0.000000,0.000000,0.000000,-1,-0.563527,-0.175334,3.154363,0.323341,0.028870,0.255032
"2018-06-07 01:17:13.472 +0000",1528334233.471761,0.043747,0.073216,0.453233,0.043616,-0.073150,-0.996367,0.000000,0.000000,0.000000,-1,-0.878574,-0.458979,3.045619,0.281198,0.040146,0.303190
"2018-06-07 01:17:13.482 +0000",1528334233.481835,0.037497,0.064483,0.483055,0.037410,-0.064438,-0.997220,0.000000,0.000000,0.000000,-1,-1.008572,-0.381751,2.867584,0.201970,-0.087493,0.296582
"2018-06-07 01:17:13.492 +0000",1528334233.491910,0.034585,0.055109,0.510799,0.034526,-0.055082,-0.997885,0.000000,0.000000,0.000000,-1,-1.028385,-0.012113,2.666484,0.176396,-0.210315,0.201529
"2018-06-07 01:17:13.502 +0000",1528334233.501983,0.037614,0.046000,0.536872,0.037565,-0.045984,-0.998236,0.000000,0.000000,0.000000,-1,-0.977351,0.586961,2.512141,0.204073,-0.233359,0.093954
"2018-06-07 01:17:13.512 +0000",1528334233.512058,0.050996,0.002659,0.560633,0.050974,-0.002659,-0.998696,0.000000,0.000000,0.000000,-1,-0.740682,1.171598,2.258372,0.113485,-0.261623,-0.082145
"2018-06-07 01:17:13.522 +0000",1528334233.522132,0.065461,-0.000315,0.580893,0.065414,0.000315,-0.997858,0.000000,0.000000,0.000000,-1,-0.292938,1.497065,1.905482,0.056748,-0.225657,-0.213964
"2018-06-07 01:17:13.532 +0000",1528334233.532206,0.081591,0.001215,0.597890,0.081501,-0.001215,-0.996673,0.000000,0.000000,0.000000,-1,0.121837,1.628911,1.629550,0.083310,-0.252341,-0.184373
"2018-06-07 01:17:13.542 +0000",1528334233.542280,0.097803,0.005628,0.612663,0.097645,-0.005628,-0.995205,0.000000,0.000000,0.000000,-1,0.349956,1.599472,1.470822,0.067165,-0.247927,-0.185840
"2018-06-07 01:17:13.552 +0000",1528334233.552354,0.119893,-0.025664,0.627098,0.119566,0.025661,-0.992495,0.000000,0.000000,0.000000,-1,0.358158,1.619155,1.494525,0.199083,-0.269664,0.152300
"2018-06-07 01:17:13.562 +0000",1528334233.562428,0.136576,-0.020581,0.643088,0.136123,0.020580,-0.990478,0.000000,0.000000,0.000000,-1,0.277815,1.608191,1.700125,0.306397,-0.230754,0.173248
"2018-06-07 01:17:13.573 +0000",1528334233.572502,0.152207,-0.015265,0.661401,0.151603,0.015264,-0.988324,0.000000,0.000000,0.000000,-1,0.259406,1.480956,1.924607,0.359185,-0.177587,0.119778
"2018-06-07 01:17:13.583 +0000",1528334233.582576,0.166556,-0.009462,0.681581,0.165780,0.009462,-0.986117,0.000000,0.000000,0.000000,-1,0.242230,1.379086,2.122269,0.360786,-0.117906,0.108127
"2018-06-07 01:17:13.593 +0000",1528334233.592650,0.187714,-0.030866,0.704599,0.186525,0.030861,-0.981965,0.000000,0.000000,0.000000,-1,0.120359,1.301798,2.409520,0.355254,-0.138680,0.108796
"2018-06-07 01:17:13.603 +0000",1528334233.602724,0.201481,-0.026101,0.730834,0.200053,0.026098,-0.979438,0.000000,0.000000,0.000000,-1,-0.092061,1.296628,2.716551,0.333105,-0.103963,0.100272
"2018-06-07 01:17:13.613 +0000",1528334233.612798,0.216005,-0.021899,0.759382,0.214278,0.021897,-0.976527,0.000000,0.000000,0.000000,-1,-0.199603,1.418547,2.891406,0.336442,-0.060791,0.071773
"2018-06-07 01:17:13.623 +0000",1528334233.622872,0.233062,-0.017647,0.789058,0.230922,0.017646,-0.972812,0.000000,0.000000,0.000000,-1,-0.261505,1.697916,2.984866,0.244847,-0.063239,0.101017
"2018-06-07 01:17:13.633 +0000",1528334233.632946,0.257673,-0.035063,0.819207,0.254674,0.035056,-0.966391,0.000000,0.000000,0.000000,-1,-0.450101,1.591105,2.937659,-0.071355,-0.109458,0.096259
"2018-06-07 01:17:13.643 +0000",1528334233.643020,0.272150,-0.033985,0.847467,0.268647,0.033979,-0.962639,0.000000,0.000000,0.000000,-1,-0.684950,1.255739,2.650024,-0.298036,-0.083676,0.002129
"2018-06-07 01:17:13.653 +0000",1528334233.653094,0.285335,-0.034482,0.872686,0.281312,0.034475,-0.958997,0.000000,0.000000,0.000000,-1,-0.725378,1.244983,2.308030,-0.178147,-0.042410,-0.157611
"2018-06-07 01:17:13.663 +0000",1528334233.663168,0.300216,-0.033922,0.894322,0.295556,0.033915,-0.954723,0.000000,0.000000,0.000000,-1,-0.496298,1.459903,1.994042,-0.079049,-0.052943,-0.227818
"2018-06-07 01:17:13.673 +0000",1528334233.673242,0.324139,-0.048551,0.911903,0.318117,0.048532,-0.946808,0.000000,0.000000,0.000000,-1,-0.162825,1.688516,1.624997,-0.163591,-0.078302,-0.213287
"2018-06-07 01:17:13.683 +0000",1528334233.683316,0.344663,-0.043739,0.924082,0.337557,0.043725,-0.940289,0.000000,0.000000,0.000000,-1,0.115327,2.077522,1.190931,-0.190554,-0.057824,-0.175357
"2018-06-07 01:17:13.693 +0000",1528334233.693390,0.367639,-0.038776,0.932682,0.359143,0.038766,-0.932477,0.000000,0.000000,0.000000,-1,0.178146,2.275336,0.919225,-0.141355,-0.135278,-0.163272
"2018-06-07 01:17:13.703 +0000",1528334233.703465,0.389253,-0.033867,0.939897,0.379280,0.033860,-0.924662,0.000000,0.000000,0.000000,-1,0.189650,2.026591,0.819515,-0.225639,-0.248475,-0.191167
"2018-06-07 01:17:13.714 +0000",1528334233.713539,0.415862,-0.041583,0.945801,0.403629,0.041571,-0.913978,0.000000,0.000000,0.000000,-1,0.317262,1.558812,0.672650,-0.324116,-0.254889,-0.262933
"2018-06-07 01:17:13.724 +0000",1528334233.723613,0.431138,-0.033055,0.947084,0.417676,0.033049,-0.907994,0.000000,0.000000,0.000000,-1,0.833988,1.469114,0.415203,-0.445707,0.025118,-0.458110
"2018-06-07 01:17:13.734 +0000",1528334233.733687,0.443581,-0.022767,0.947731,0.429065,0.022765,-0.902986,0.000000,0.000000,0.000000,-1,0.891102,1.174561,0.536838,-0.236942,-0.025985,-0.277205
"2018-06-07 01:17:13.744 +0000",1528334233.743761,0.456214,-0.012639,0.949953,0.440517,0.012639,-0.897655,0.000000,0.000000,0.000000,-1,0.779724,1.302161,0.663315,-0.127270,-0.166203,0.012264
"2018-06-07 01:17:13.754 +0000",1528334233.753835,0.480890,-0.012375,0.953391,0.462533,0.012374,-0.886515,0.000000,0.000000,0.000000,-1,0.679307,1.410270,0.732701,-0.144479,0.003373,0.051402
"2018-06-07 01:17:13.764 +0000",1528334233.763909,0.494648,-0.003757,0.956685,0.474719,0.003757,-0.880129,0.000000,0.000000,0.000000,-1,0.571688,1.327904,0.669245,-0.181353,0.067395,0.051257
"2018-06-07 01:17:13.774 +0000",1528334233.773983,0.506580,0.003694,0.960094,0.485187,-0.003694,-0.874403,0.000000,0.000000,0.000000,-1,0.465881,1.143240,0.656042,-0.153018,-0.001448,0.016630
"2018-06-07 01:17:13.784 +0000",1528334233.784057,0.516494,0.011467,0.964546,0.493802,-0.011467,-0.869499,0.000000,0.000000,0.000000,-1,0.457542,0.925207,0.811395,-0.021954,-0.075508,-0.063164
"2018-06-07 01:17:13.794 +0000",1528334233.794131,0.533040,0.014028,0.969959,0.508104,-0.014028,-0.861181,0.000000,0.000000,0.000000,-1,0.487410,0.573499,0.931852,0.010390,-0.113429,-0.128229
"2018-06-07 01:17:13.804 +0000",1528334233.804205,0.535812,0.022951,0.975046,0.510405,-0.022949,-0.859628,0.000000,0.000000,0.000000,-1,0.508304,0.195142,0.856484,-0.071593,-0.104630,-0.131904
"2018-06-07 01:17:13.814 +0000",1528334233.814279,0.536883,0.031008,0.978882,0.511214,-0.031003,-0.858894,0.000000,0.000000,0.000000,-1,0.482295,0.123288,0.696063,-0.067733,-0.103457,-0.078652
"2018-06-07 01:17:13.824 +0000",1528334233.824353,0.539763,0.037914,0.981957,0.513563,-0.037905,-0.857214,0.000000,0.000000,0.000000,-1,0.415667,0.370553,0.588295,0.032137,-0.116208,0.028143
"2018-06-07 01:17:13.834 +0000",1528334233.834427,0.552903,0.038204,0.983694,0.524776,-0.038195,-0.850383,0.000000,0.000000,0.000000,-1,0.380976,0.654385,0.420324,0.018650,-0.155927,0.074107
"2018-06-07 01:17:13.845 +0000",1528334233.844501,0.560536,0.043247,0.983713,0.531143,-0.043234,-0.846178,0.000000,0.000000,0.000000,-1,0.450706,0.779486,0.215080,-0.056732,-0.184199,0.000231
"2018-06-07 01:17:13.855 +0000",1528334233.854575,0.568913,0.048731,0.981747,0.538077,-0.048712,-0.841487,0.000000,0.000000,0.000000,-1,0.603771,0.851722,0.106299,-0.063666,-0.178720,-0.004460
"2018-06-07 01:17:13.865 +0000",1528334233.864649,0.579570,0.054364,0.978634,0.546855,-0.054337,-0.835462,0.000000,0.000000,0.000000,-1,0.631452,1.115604,0.025255,0.042393,-0.169799,-0.083377
"2018-06-07 01:17:13.875 +0000",1528334233.874723,0.599841,0.055503,0.974655,0.563642,-0.055475,-0.824154,0.000000,0.000000,0.000000,-1,0.581431,1.312283,-0.050430,-0.017011,-0.221778,-0.030765
"2018-06-07 01:17:13.885 +0000",1528334233.884798,0.612602,0.060054,0.970236,0.573962,-0.060018,-0.816679,0.000000,0.000000,0.000000,-1,0.648267,1.198604,-0.122982,-0.086932,-0.245875,-0.124193
"2018-06-07 01:17:13.895 +0000",1528334233.894872,0.623693,0.065023,0.963903,0.582803,-0.064977,-0.810011,0.000000,0.000000,0.000000,-1,0.803910,1.026178,-0.263673,-0.126519,-0.222132,-0.168581
"2018-06-07 01:17:13.905 +0000",1528334233.904946,0.634739,0.069609,0.955861,0.591531,-0.069553,-0.803276,0.000000,0.000000,0.000000,-1,0.831230,1.064177,-0.406686,-0.091974,-0.228070,-0.086433
"2018-06-07 01:17:13.915 +0000",1528334233.915020,0.655170,0.071577,0.946570,0.607734,-0.071516,-0.790914,0.000000,0.000000,0.000000,-1,0.796092,1.273077,-0.507109,-0.083198,-0.226061,-0.005214
"2018-06-07 01:17:13.925 +0000",1528334233.925094,0.670244,0.074211,0.936929,0.619468,-0.074143,-0.781513,0.000000,0.000000,0.000000,-1,0.797847,1.466773,-0.622719,-0.075522,-0.220763,-0.002072
"2018-06-07 01:17:13.935 +0000",1528334233.935168,0.686474,0.076409,0.926467,0.631964,-0.076335,-0.771229,0.000000,0.000000,0.000000,-1,0.826526,1.553797,-0.675238,0.023660,-0.197301,0.009663
"2018-06-07 01:17:13.945 +0000",1528334233.945242,0.704257,0.078403,0.916212,0.645478,-0.078323,-0.759752,0.000000,0.000000,0.000000,-1,0.779853,1.735741,-0.638030,0.129363,-0.177994,0.091188
"2018-06-07 01:17:13.955 +0000",1528334233.955316,0.731290,0.079904,0.906988,0.665699,-0.079819,-0.741939,0.000000,0.000000,0.000000,-1,0.537721,1.750142,-0.567517,0.164165,-0.235412,0.192699
"2018-06-07 01:17:13.965 +0000",1528334233.965390,0.748629,0.079966,0.901555,0.678460,-0.079881,-0.730281,0.000000,0.000000,0.000000,-1,0.310185,1.639838,-0.330675,0.240257,-0.171721,0.241191
"2018-06-07 01:17:13.975 +0000",1528334233.975464,0.762848,0.079350,0.899076,0.688809,-0.079266,-0.720596,0.000000,0.000000,0.000000,-1,0.062680,1.285116,-0.198835,0.162799,-0.225604,0.223434
"2018-06-07 01:17:13.986 +0000",1528334233.985538,0.771914,0.077747,0.897769,0.695401,-0.077669,-0.714413,0.000000,0.000000,0.000000,-1,-0.034385,0.759078,-0.214127,-0.008450,-0.257750,0.122341
"2018-06-07 01:17:13.996 +0000",1528334233.995612,0.784595,0.078010,0.895527,0.704390,-0.077930,-0.705522,0.000000,0.000000,0.000000,-1,0.007043,0.391503,-0.229274,-0.027648,-0.212200,-0.015059
"2018-06-07 01:17:14.006 +0000",1528334234.005686,0.787840,0.076730,0.894246,0.706746,-0.076654,-0.703303,0.000000,0.000000,0.000000,-1,-0.010203,0.292364,-0.159606,0.022289,-0.235632,-0.009847
"2018-06-07 01:17:14.016 +0000",1528334234.015760,0.789633,0.075673,0.894071,0.708063,-0.075601,-0.702091,0.000000,0.000000,0.000000,-1,-0.076979,0.131490,-0.060962,0.029685,-0.219382,0.002216
"2018-06-07 01:17:14.026 +0000",1528334234.025834,0.789503,0.075056,0.895738,0.708004,-0.074986,-0.702216,0.000000,0.000000,0.000000,-1,-0.201178,-0.036529,0.130287,0.102589,-0.239544,0.036750
"2018-06-07 01:17:14.036 +0000",1528334234.035909,0.793751,0.076445,0.900308,0.710906,-0.076371,-0.699128,0.000000,0.000000,0.000000,-1,-0.407041,-0.193113,0.422879,0.216004,-0.288512,0.121903
"2018-06-07 01:17:14.046 +0000",1528334234.045983,0.788703,0.077252,0.908113,0.707324,-0.077175,-0.702664,0.000000,0.000000,0.000000,-1,-0.503974,-0.537900,0.641529,0.199552,-0.279194,0.076138
"2018-06-07 01:17:14.056 +0000",1528334234.056057,0.779273,0.079491,0.915136,0.700543,-0.079407,-0.709178,0.000000,0.000000,0.000000,-1,-0.230424,-0.976222,0.635325,0.048999,-0.349686,-0.185948
"2018-06-07 01:17:14.066 +0000",1528334234.066131,0.769463,0.084741,0.916674,0.693253,-0.084640,-0.715707,0.000000,0.000000,0.000000,-1,0.421495,-0.940498,0.401597,-0.216614,-0.296967,-0.584815
"2018-06-07 01:17:14.076 +0000",1528334234.076205,0.765012,0.090611,0.913127,0.689704,-0.090487,-0.718415,0.000000,0.000000,0.000000,-1,0.679849,-0.806849,0.115272,-0.270072,-0.330442,-0.448547
"2018-06-07 01:17:14.086 +0000",1528334234.086279,0.760494,0.095405,0.908703,0.686145,-0.095261,-0.721201,0.000000,0.000000,0.000000,-1,0.620448,-0.363029,-0.000546,-0.163165,-0.327789,-0.038122
"2018-06-07 01:17:14.096 +0000",1528334234.096353,0.759910,0.099421,0.904240,0.685454,-0.099258,-0.721318,0.000000,0.000000,0.000000,-1,0.591284,-0.079605,-0.067420,-0.068633,-0.345750,-0.033320
"2018-06-07 01:17:14.106 +0000",1528334234.106427,0.757554,0.102790,0.898599,0.683520,-0.102609,-0.722684,0.000000,0.000000,0.000000,-1,0.640953,-0.384067,-0.206102,-0.094500,-0.291770,-0.083133
"2018-06-07 01:17:14.117 +0000",1528334234.116501,0.754337,0.105743,0.892231,0.680981,-0.105546,-0.724655,0.000000,0.000000,0.000000,-1,0.717497,-0.657411,-0.155442,-0.034801,-0.239715,-0.067291
"2018-06-07 01:17:14.127 +0000",1528334234.126575,0.747496,0.110348,0.885859,0.675669,-0.110124,-0.728933,0.000000,0.000000,0.000000,-1,0.769125,-0.780194,-0.161295,-0.111460,-0.229307,0.015081
"2018-06-07 01:17:14.137 +0000",1528334234.136651,0.738772,0.114005,0.878501,0.669009,-0.113758,-0.734497,0.000000,0.000000,0.000000,-1,0.760174,-1.001236,-0.336172,-0.297778,-0.181362,0.139252
"2018-06-07 01:17:14.147 +0000",1528334234.146725,0.729536,0.116580,0.869673,0.662000,-0.116316,-0.740423,0.000000,0.000000,0.000000,-1,0.762679,-0.993845,-0.526546,-0.319089,-0.105409,0.102697
"2018-06-07 01:17:14.157 +0000",1528334234.156799,0.722806,0.115593,0.859537,0.657077,-0.115335,-0.744948,0.000000,0.000000,0.000000,-1,0.718869,-0.764773,-0.731227,-0.259723,-0.080374,0.071364
"2018-06-07 01:17:14.167 +0000",1528334234.166873,0.718161,0.115675,0.847700,0.653604,-0.115417,-0.747985,0.000000,0.000000,0.000000,-1,0.798907,-0.566161,-0.920146,-0.257287,-0.002396,0.185683
"2018-06-07 01:17:14.177 +0000",1528334234.176947,0.713970,0.115665,0.834158,0.650464,-0.115407,-0.750718,0.000000,0.000000,0.000000,-1,0.915244,-0.579679,-1.022638,-0.179746,0.081517,0.107179
"2018-06-07 01:17:14.187 +0000",1528334234.187021,0.709433,0.116904,0.818702,0.646957,-0.116638,-0.753553,0.000000,0.000000,0.000000,-1,1.147007,-0.647854,-1.104041,-0.115997,0.040756,-0.000689
"2018-06-07 01:17:14.197 +0000",1528334234.197096,0.704120,0.116707,0.800374,0.642959,-0.116443,-0.756997,0.000000,0.000000,0.000000,-1,1.391266,-0.741840,-1.304944,-0.147079,0.031772,-0.038978
"2018-06-07 01:17:14.207 +0000",1528334234.207170,0.699992,0.118954,0.779018,0.639659,-0.118674,-0.759442,0.000000,0.000000,0.000000,-1,1.556568,-0.589019,-1.512477,-0.110835,-0.025140,-0.045444
"2018-06-07 01:17:14.217 +0000",1528334234.217244,0.700194,0.119814,0.755330,0.639746,-0.119527,-0.759235,0.000000,0.000000,0.000000,-1,1.565827,-0.154108,-1.814565,-0.135565,-0.076075,0.043354
"2018-06-07 01:17:14.227 +0000",1528334234.227318,0.705196,0.117690,0.726711,0.643699,-0.117418,-0.756217,0.000000,0.000000,0.000000,-1,1.718797,0.275131,-2.502079,-0.307334,-0.233641,-0.094933
"2018-06-07 01:17:14.237 +0000",1528334234.237392,0.715539,0.109347,0.689092,0.652106,-0.109129,-0.750232,0.000000,0.000000,0.000000,-1,2.010003,0.801234,-3.421968,-0.512824,-0.364580,-0.398450
"2018-06-07 01:17:14.247 +0000",1528334234.247466,0.730073,0.099417,0.650718,0.663631,-0.099254,-0.741447,0.000000,0.000000,0.000000,-1,1.628633,1.125228,-3.449195,0.055867,-0.126790,-0.052483
"2018-06-07 01:17:14.258 +0000",1528334234.257540,0.743168,0.085412,0.619444,0.674157,-0.085309,-0.733645,0.000000,0.000000,0.000000,-1,0.835527,0.887874,-3.132905,0.369193,-0.211048,0.579989
"2018-06-07 01:17:14.268 +0000",1528334234.267614,0.746041,0.068989,0.596427,0.677122,-0.068934,-0.732635,0.000000,0.000000,0.000000,-1,0.240717,-0.220030,-2.680843,0.280077,-0.117314,0.632171
"2018-06-07 01:17:14.278 +0000",1528334234.277688,0.735348,0.053162,0.575419,0.669897,-0.053137,-0.740550,0.000000,0.000000,0.000000,-1,0.353021,-1.589391,-2.501149,-0.049322,0.034338,0.214045
"2018-06-07 01:17:14.288 +0000",1528334234.287762,0.719799,0.039441,0.554390,0.658721,-0.039431,-0.751354,0.000000,0.000000,0.000000,-1,0.370551,-1.542292,-2.464480,-0.025221,0.116518,0.014553
"2018-06-07 01:17:14.298 +0000",1528334234.297836,0.709431,0.027017,0.532413,0.651164,-0.027013,-0.758456,0.000000,0.000000,0.000000,-1,0.550458,-0.978753,-2.436362,0.107930,0.088964,-0.078763
"2018-06-07 01:17:14.308 +0000",1528334234.307910,0.702002,0.016422,0.510877,0.645661,-0.016421,-0.763448,0.000000,0.000000,0.000000,-1,0.569852,-0.729158,-2.257123,0.192337,-0.044553,0.049245
"2018-06-07 01:17:14.318 +0000",1528334234.317984,0.698417,0.005973,0.491469,0.642994,-0.005973,-0.765847,0.000000,0.000000,0.000000,-1,0.511063,-0.426211,-2.024843,0.154979,-0.027337,0.091073
"2018-06-07 01:17:14.328 +0000",1528334234.328058,0.697124,-0.001562,0.473533,0.642014,0.001562,-0.766691,0.000000,0.000000,0.000000,-1,0.597034,-0.021917,-1.780768,0.091460,-0.076056,0.009245
"2018-06-07 01:17:14.338 +0000",1528334234.338133,0.699790,-0.006831,0.457825,0.644042,0.006831,-0.764960,0.000000,0.000000,0.000000,-1,0.592038,0.356515,-1.450508,0.029145,-0.056178,0.053320
"2018-06-07 01:17:14.348 +0000",1528334234.348207,0.704602,-0.011170,0.444464,0.647690,0.011170,-0.761822,0.000000,0.000000,0.000000,-1,0.502107,0.526677,-1.249738,-0.108445,-0.045426,0.093487
"2018-06-07 01:17:14.358 +0000",1528334234.358281,0.712591,-0.015966,0.433071,0.653713,0.015965,-0.756574,0.000000,0.000000,0.000000,-1,0.412356,0.689249,-1.071578,-0.124142,-0.060765,0.034696
"2018-06-07 01:17:14.368 +0000",1528334234.368355,0.720257,-0.019024,0.424075,0.659459,0.019023,-0.751500,0.000000,0.000000,0.000000,-1,0.341899,0.804284,-0.801095,-0.001164,-0.031382,0.005391
"2018-06-07 01:17:14.378 +0000",1528334234.378429,0.728885,-0.020280,0.417587,0.665901,0.020279,-0.745764,0.000000,0.000000,0.000000,-1,0.333078,0.888556,-0.483514,0.105980,-0.074768,0.004492
"2018-06-07 01:17:14.389 +0000",1528334234.388503,0.738502,-0.019513,0.413507,0.673052,0.019512,-0.739337,0.000000,0.000000,0.000000,-1,0.323307,0.997043,-0.181996,0.144773,-0.116756,0.041415
"2018-06-07 01:17:14.399 +0000",1528334234.398577,0.753782,-0.017259,0.411683,0.684299,0.017258,-0.728997,0.000000,0.000000,0.000000,-1,0.350772,1.505115,0.145340,0.127514,-0.089432,0.148400
"2018-06-07 01:17:14.409 +0000",1528334234.408651,0.773713,-0.011932,0.412346,0.698746,0.011932,-0.715270,0.000000,0.000000,0.000000,-1,0.300383,2.093079,0.479540,0.212051,-0.228454,0.245940
"2018-06-07 01:17:14.419 +0000",1528334234.418725,0.796810,-0.006531,0.417188,0.715114,0.006531,-0.698977,0.000000,0.000000,0.000000,-1,-0.061549,2.324536,0.804811,0.230412,-0.204529,0.109225
"2018-06-07 01:17:14.429 +0000",1528334234.428799,0.819388,-0.000966,0.426299,0.730728,0.000966,-0.682668,0.000000,0.000000,0.000000,-1,-0.314612,2.184332,1.086802,0.145233,-0.133290,-0.012523
"2018-06-07 01:17:14.439 +0000",1528334234.438873,0.842206,0.005273,0.436672,0.746103,-0.005273,-0.665809,0.000000,0.000000,0.000000,-1,-0.335952,2.017143,1.150903,0.006491,-0.073859,-0.146370
"2018-06-07 01:17:14.449 +0000",1528334234.448947,0.862813,0.011256,0.446475,0.759627,-0.011255,-0.650262,0.000000,0.000000,0.000000,-1,-0.349055,2.061342,1.073615,-0.017759,0.033228,-0.114112
"2018-06-07 01:17:14.459 +0000",1528334234.459021,0.883144,0.015819,0.455593,0.772641,-0.015818,-0.634646,0.000000,0.000000,0.000000,-1,-0.426023,2.002803,0.845585,0.029986,0.090739,-0.013960
"2018-06-07 01:17:14.469 +0000",1528334234.469096,0.898373,0.015200,0.460781,0.782224,-0.015199,-0.622812,0.000000,0.000000,0.000000,-1,-0.410975,1.179994,-0.055007,0.108752,0.007158,0.036218
"2018-06-07 01:17:14.479 +0000",1528334234.479170,0.900306,0.005799,0.454147,0.783504,-0.005799,-0.621360,0.000000,0.000000,0.000000,-1,0.039574,-0.219446,-1.381002,-0.201228,-0.517151,0.040275
"2018-06-07 01:17:14.489 +0000",1528334234.489244,0.906774,-0.004445,0.446298,0.787512,0.004445,-0.616283,0.000000,0.000000,0.000000,-1,-0.121015,1.019573,-1.138237,-0.297064,-0.521779,0.408016
"2018-06-07 01:17:14.499 +0000",1528334234.499318,0.926188,-0.010150,0.448571,0.799294,0.010150,-0.600854,0.000000,0.000000,0.000000,-1,-0.643197,2.154047,-0.025826,-0.308846,-0.527484,0.392587
"2018-06-07 01:17:14.509 +0000",1528334234.509392,0.949724,-0.011338,0.458060,0.813203,0.011338,-0.581870,0.000000,0.000000,0.000000,-1,-0.863200,2.329909,0.562491,0.327025,-0.212159,0.131156
"2018-06-07 01:17:14.519 +0000",1528334234.519466,0.975009,-0.009456,0.470244,0.827670,0.009456,-0.561135,0.000000,0.000000,0.000000,-1,-0.917240,2.299798,0.901356,0.114408,-0.007975,0.149484
"2018-06-07 01:17:14.530 +0000",1528334234.529540,0.998153,-0.005416,0.484502,0.840459,0.005416,-0.541848,0.000000,0.000000,0.000000,-1,-0.977026,2.250204,1.170260,-0.048009,-0.104369,0.071312
"2018-06-07 01:17:14.540 +0000",1528334234.539614,1.015934,-0.001479,0.499095,0.849972,0.001479,-0.526826,0.000000,0.000000,0.000000,-1,-1.021555,1.550259,1.037097,-0.123043,-0.036605,-0.291701
"2018-06-07 01:17:14.550 +0000",1528334234.549688,1.024504,-0.001078,0.510758,0.854456,0.001078,-0.519523,0.000000,0.000000,0.000000,-1,-0.933488,0.613103,0.489892,-0.127527,-0.036204,-0.299005
"2018-06-07 01:17:14.560 +0000",1528334234.559762,1.026399,-0.003711,0.518384,0.855434,0.003711,-0.517899,0.000000,0.000000,0.000000,-1,-0.761340,-0.121170,0.047423,-0.201427,0.077664,-0.536896
"2018-06-07 01:17:14.570 +0000",1528334234.569836,1.022662,-0.007615,0.524439,0.853474,0.007615,-0.521080,0.000000,0.000000,0.000000,-1,-0.716455,-0.421569,-0.015941,-0.046223,-0.137452,-0.237694
"2018-06-07 01:17:14.580 +0000",1528334234.579910,1.018625,-0.011680,0.530792,0.851329,0.011680,-0.524501,0.000000,0.000000,0.000000,-1,-0.760544,-0.396417,-0.022220,0.036381,-0.206733,0.037700
"2018-06-07 01:17:14.590 +0000",1528334234.589984,1.014322,-0.016501,0.536919,0.849007,0.016500,-0.528124,0.000000,0.000000,0.000000,-1,-0.766115,-0.452049,-0.110572,-0.002800,-0.124731,0.063494
"2018-06-07 01:17:14.600 +0000",1528334234.600059,1.011997,-0.021379,0.542454,0.847699,0.021377,-0.530047,0.000000,0.000000,0.000000,-1,-0.713618,-0.260802,-0.131649,-0.041195,-0.143050,0.080706
"2018-06-07 01:17:14.610 +0000",1528334234.610133,1.012137,-0.025188,0.547558,0.847697,0.025185,-0.529882,0.000000,0.000000,0.000000,-1,-0.595080,0.092538,-0.019026,-0.047374,-0.195458,0.182531
"2018-06-07 01:17:14.620 +0000",1528334234.620207,1.015710,-0.026906,0.551693,0.849547,0.026903,-0.526826,0.000000,0.000000,0.000000,-1,-0.379980,0.425241,0.105149,-0.056014,-0.207384,0.166932
"2018-06-07 01:17:14.630 +0000",1528334234.630281,1.022592,-0.026995,0.553914,0.853150,0.026991,-0.520966,0.000000,0.000000,0.000000,-1,-0.131237,0.741054,0.090439,-0.021043,-0.170454,0.136490
"2018-06-07 01:17:14.640 +0000",1528334234.640355,1.030686,-0.027076,0.553474,0.857338,0.027072,-0.514042,0.000000,0.000000,0.000000,-1,0.078110,0.727012,-0.087563,-0.059257,-0.071598,0.041614
"2018-06-07 01:17:14.650 +0000",1528334234.650429,1.037489,-0.027468,0.550956,0.860805,0.027464,-0.508192,0.000000,0.000000,0.000000,-1,0.224814,0.664103,-0.171982,-0.027111,-0.116896,-0.013490
"2018-06-07 01:17:14.661 +0000",1528334234.660503,1.043155,-0.027456,0.547877,0.863671,0.027452,-0.503307,0.000000,0.000000,0.000000,-1,0.267747,0.536743,-0.139106,0.009116,-0.244936,-0.035908
"2018-06-07 01:17:14.671 +0000",1528334234.670577,1.047778,-0.026586,0.545447,0.866009,0.026583,-0.499320,0.000000,0.000000,0.000000,-1,0.242705,0.442832,-0.012396,0.031726,-0.331728,-0.028222
"2018-06-07 01:17:14.681 +0000",1528334234.680651,1.051733,-0.025002,0.543937,0.868013,0.025000,-0.495912,0.000000,0.000000,0.000000,-1,0.195922,0.338050,0.074534,0.004775,-0.345633,-0.016738
"2018-06-07 01:17:14.691 +0000",1528334234.690725,1.053752,-0.023317,0.542894,0.869047,0.023315,-0.494179,0.000000,0.000000,0.000000,-1,0.165477,0.152354,0.095576,-0.054472,-0.289397,-0.055016
"2018-06-07 01:17:14.701 +0000",1528334234.700799,1.053451,-0.020566,0.542690,0.868951,0.020565,-0.494470,0.000000,0.000000,0.000000,-1,0.152573,-0.099938,0.302471,-0.000009,-0.347209,-0.088050
"2018-06-07 01:17:14.711 +0000",1528334234.710873,1.050908,-0.015367,0.541328,0.867772,0.015367,-0.496724,0.000000,0.000000,0.000000,-1,0.456699,-0.255314,0.383072,0.050960,-0.446031,-0.145305
"2018-06-07 01:17:14.721 +0000",1528334234.720947,1.051024,-0.010740,0.538114,0.867882,0.010740,-0.496654,0.000000,0.000000,0.000000,-1,0.488327,0.141912,0.181934,-0.004127,-0.236219,0.087551
"2018-06-07 01:17:14.731 +0000",1528334234.731022,1.054005,-0.009034,0.534296,0.869373,0.009033,-0.494072,0.000000,0.000000,0.000000,-1,0.406359,0.325132,-0.108845,-0.005619,-0.234513,0.084969
"2018-06-07 01:17:14.741 +0000",1528334234.741096,1.057357,-0.008257,0.528923,0.871030,0.008257,-0.491159,0.000000,0.000000,0.000000,-1,0.539425,0.322602,-0.202738,-0.034223,-0.174654,0.024866
"2018-06-07 01:17:14.751 +0000",1528334234.751170,1.059521,-0.006871,0.522911,0.872100,0.006870,-0.489278,0.000000,0.000000,0.000000,-1,0.593855,0.184260,-0.161315,-0.025818,-0.263844,-0.045878
"2018-06-07 01:17:14.761 +0000",1528334234.761244,1.059445,-0.004860,0.516481,0.872073,0.004860,-0.489350,0.000000,0.000000,0.000000,-1,0.696636,-0.031910,-0.114851,-0.022296,-0.287910,-0.055099
"2018-06-07 01:17:14.771 +0000",1528334234.771318,1.056237,-0.002041,0.508851,0.870507,0.002041,-0.492150,0.000000,0.000000,0.000000,-1,0.814893,-0.421153,-0.147448,-0.003976,-0.364361,-0.117835
"2018-06-07 01:17:14.781 +0000",1528334234.781392,1.049505,-0.000903,0.500917,0.867176,0.000903,-0.498000,0.000000,0.000000,0.000000,-1,0.702219,-0.724718,-0.345992,-0.039997,-0.350177,-0.055589
"2018-06-07 01:17:14.791 +0000",1528334234.791466,1.042787,-0.002524,0.493385,0.863809,0.002524,-0.503813,0.000000,0.000000,0.000000,-1,0.520985,-0.596982,-0.560334,-0.094903,-0.304893,0.082243
"2018-06-07 01:17:14.802 +0000",1528334234.801540,1.086850,0.041599,0.485582,0.884399,-0.041587,-0.464874,0.000000,0.000000,0.000000,-1,0.425551,-0.272060,-0.619407,-0.119537,-0.224984,0.077789
"2018-06-07 01:17:14.812 +0000",1528334234.811614,1.112450,0.057441,0.477853,0.895306,-0.057409,-0.441736,0.000000,0.000000,0.000000,-1,0.473367,-0.181610,-0.428864,-0.028653,-0.201762,-0.049170
"2018-06-07 01:17:14.822 +0000",1528334234.821688,1.112338,0.071548,0.472279,0.894441,-0.071487,-0.441433,0.000000,0.000000,0.000000,-1,0.566060,-0.216976,-0.048401,0.097655,-0.177308,-0.093418
"2018-06-07 01:17:14.832 +0000",1528334234.831762,1.108283,0.090838,0.466805,0.891244,-0.090713,-0.444359,0.000000,0.000000,0.000000,-1,0.779901,-0.272678,0.287625,0.160667,-0.103973,-0.128853
"2018-06-07 01:17:14.842 +0000",1528334234.841836,1.103545,0.110460,0.461213,0.887368,-0.110236,-0.447689,0.000000,0.000000,0.000000,-1,0.897898,-0.331512,0.521674,0.133399,-0.117166,-0.106266
"2018-06-07 01:17:14.852 +0000",1528334234.851911,1.097734,0.130580,0.456165,0.882598,-0.130209,-0.451736,0.000000,0.000000,0.000000,-1,0.876545,-0.273548,0.559539,0.098451,-0.095820,-0.047822
"2018-06-07 01:17:14.862 +0000",1528334234.861985,1.096031,0.149790,0.451319,0.879440,-0.149231,-0.452011,0.000000,0.000000,0.000000,-1,0.791019,0.101076,0.434974,0.055145,0.000503,0.077698
"2018-06-07 01:17:14.872 +0000",1528334234.872059,1.101944,0.168709,0.445820,0.879421,-0.167910,-0.445447,0.000000,0.000000,0.000000,-1,0.724531,0.374777,0.305770,0.052891,0.072496,0.097379
"2018-06-07 01:17:14.882 +0000",1528334234.882133,1.110876,0.181701,0.441037,0.881336,-0.180702,-0.436569,0.000000,0.000000,0.000000,-1,0.552751,0.690881,0.204896,0.068783,0.094933,0.127670
"2018-06-07 01:17:14.892 +0000",1528334234.892207,1.118950,0.187843,0.438269,0.883817,-0.186740,-0.428946,0.000000,0.000000,0.000000,-1,0.350498,1.002499,0.106231,0.072131,0.127490,0.160819
"2018-06-07 01:17:14.902 +0000",1528334234.902281,1.130527,0.190414,0.436963,0.888286,-0.189265,-0.418480,0.000000,0.000000,0.000000,-1,0.193020,1.147606,0.215654,0.063069,0.010280,0.088173
"2018-06-07 01:17:14.912 +0000",1528334234.912355,1.140899,0.194632,0.436953,0.891845,-0.193406,-0.408908,0.000000,0.000000,0.000000,-1,0.188371,0.963353,0.433484,0.016313,-0.104324,-0.090421
"2018-06-07 01:17:14.922 +0000",1528334234.922429,1.148436,0.200881,0.436551,0.893782,-0.199532,-0.401671,0.000000,0.000000,0.000000,-1,0.326204,0.695299,0.572223,-0.053862,-0.093833,-0.220842
"2018-06-07 01:17:14.933 +0000",1528334234.932503,1.154437,0.207401,0.435327,0.894967,-0.205917,-0.395766,0.000000,0.000000,0.000000,-1,0.377170,0.538678,0.520019,-0.055047,-0.087448,-0.226746
"2018-06-07 01:17:14.943 +0000",1528334234.942577,1.159374,0.212800,0.434051,0.895878,-0.211197,-0.390893,0.000000,0.000000,0.000000,-1,0.299294,0.444495,0.414511,0.001659,0.005585,-0.052635
"2018-06-07 01:17:14.953 +0000",1528334234.952651,1.163540,0.216501,0.433976,0.896775,-0.214813,-0.386844,0.000000,0.000000,0.000000,-1,0.100619,0.401593,0.304049,0.012313,-0.021011,0.024433
"2018-06-07 01:17:14.963 +0000",1528334234.962725,1.166751,0.217977,0.434853,0.897720,-0.216255,-0.383837,0.000000,0.000000,0.000000,-1,-0.051197,0.335008,0.112739,-0.044891,0.035286,0.022540
"2018-06-07 01:17:14.973 +0000",1528334234.972800,1.169407,0.217361,0.435848,0.898858,-0.215654,-0.381504,0.000000,0.000000,0.000000,-1,-0.123401,0.267430,-0.050791,-0.077325,0.040132,-0.006557
"2018-06-07 01:17:14.983 +0000",1528334234.982874,1.171124,0.216055,0.436819,0.899771,-0.214378,-0.380069,0.000000,0.000000,0.000000,-1,-0.139852,0.157743,-0.083342,-0.078238,0.038856,-0.007992
"2018-06-07 01:17:14.993 +0000",1528334234.992948,1.171898,0.214806,0.437862,0.900311,-0.213158,-0.379477,0.000000,0.000000,0.000000,-1,-0.136654,0.083091,-0.080339,-0.027096,-0.017387,-0.055689
"2018-06-07 01:17:15.003 +0000",1528334235.003022,1.171510,0.212614,0.438042,0.900591,-0.211016,-0.380007,0.000000,0.000000,0.000000,-1,-0.080662,-0.030230,-0.245371,-0.011447,0.071077,-0.084364
"2018-06-07 01:17:15.013 +0000",1528334235.013096,1.171585,0.209742,0.437532,0.901175,-0.208208,-0.380173,0.000000,0.000000,0.000000,-1,-0.061520,-0.000393,-0.279748,-0.042059,0.041139,-0.010437
"2018-06-07 01:17:15.023 +0000",1528334235.023170,1.171800,0.207355,0.436529,0.901712,-0.205872,-0.380171,0.000000,0.000000,0.000000,-1,0.020171,0.005197,-0.249801,-0.050897,-0.055770,-0.020525
"2018-06-07 01:17:15.033 +0000",1528334235.033244,1.172615,0.204839,0.434524,0.902496,-0.203409,-0.379636,0.000000,0.000000,0.000000,-1,0.107957,0.052998,-0.334842,-0.084976,0.065393,-0.017261
"2018-06-07 01:17:15.043 +0000",1528334235.043318,1.174375,0.202011,0.430655,0.903690,-0.200639,-0.378268,0.000000,0.000000,0.000000,-1,0.289214,0.144992,-0.424268,-0.114215,0.097063,-0.007871
"2018-06-07 01:17:15.053 +0000",1528334235.053392,1.178032,0.199007,0.425365,0.905620,-0.197696,-0.375189,0.000000,0.000000,0.000000,-1,0.372583,0.294812,-0.493940,-0.090968,0.073658,0.008230
"2018-06-07 01:17:15.063 +0000",1528334235.063466,1.182769,0.195220,0.419550,0.908074,-0.193982,-0.371176,0.000000,0.000000,0.000000,-1,0.377376,0.375327,-0.580844,-0.046318,0.016934,0.001348
"2018-06-07 01:17:15.074 +0000",1528334235.073540,1.184160,0.192799,0.415257,0.909021,-0.191606,-0.370088,0.000000,0.000000,0.000000,-1,0.279378,0.461650,-0.550250,0.008475,-0.065977,0.017808
"2018-06-07 01:17:15.084 +0000",1528334235.083615,1.189994,0.188445,0.411166,0.911930,-0.187332,-0.365085,0.000000,0.000000,0.000000,-1,0.193198,0.505316,-0.548850,0.005565,-0.070252,0.012806
"2018-06-07 01:17:15.094 +0000",1528334235.093689,1.187207,0.179466,0.409267,0.912433,-0.178504,-0.368240,0.000000,0.000000,0.000000,-1,0.143275,0.440071,-0.468252,0.000013,-0.052727,-0.073884
"2018-06-07 01:17:15.104 +0000",1528334235.103763,1.189094,0.181405,0.406864,0.912803,-0.180412,-0.366388,0.000000,0.000000,0.000000,-1,0.134977,0.282469,-0.325631,0.029244,-0.101724,-0.117590
"2018-06-07 01:17:15.114 +0000",1528334235.113837,1.186244,0.177284,0.406159,0.912436,-0.176356,-0.369264,0.000000,0.000000,0.000000,-1,0.053073,0.071898,-0.165785,0.026696,-0.141423,-0.095732
"2018-06-07 01:17:15.124 +0000",1528334235.123911,1.181251,0.171513,0.406145,0.911507,-0.170673,-0.374196,0.000000,0.000000,0.000000,-1,0.021642,-0.061046,-0.159646,-0.033578,-0.041775,-0.051860
"2018-06-07 01:17:15.134 +0000",1528334235.133985,1.178511,0.167087,0.405758,0.911168,-0.166310,-0.376977,0.000000,0.000000,0.000000,-1,-0.048861,-0.065133,-0.278893,-0.076741,0.031789,0.011559
"2018-06-07 01:17:15.144 +0000",1528334235.144058,1.177208,0.163528,0.405810,0.911217,-0.162800,-0.378389,0.000000,0.000000,0.000000,-1,-0.206068,-0.091170,-0.457166,-0.054421,0.006794,0.040712
"2018-06-07 01:17:15.154 +0000",1528334235.154132,1.178050,0.162251,0.406246,0.911727,-0.161540,-0.377700,0.000000,0.000000,0.000000,-1,-0.302270,-0.083515,-0.513932,-0.061034,-0.032155,-0.004747
"2018-06-07 01:17:15.164 +0000",1528334235.164206,1.176876,0.158272,0.406799,0.911869,-0.157612,-0.379013,0.000000,0.000000,0.000000,-1,-0.286966,-0.121588,-0.587222,-0.118702,-0.019344,-0.027908
"2018-06-07 01:17:15.174 +0000",1528334235.174280,1.173491,0.154153,0.406918,0.911171,-0.153543,-0.382347,0.000000,0.000000,0.000000,-1,-0.214530,-0.192799,-0.573612,-0.083748,-0.023932,-0.070611
"2018-06-07 01:17:15.184 +0000",1528334235.184355,1.169307,0.153790,0.406440,0.909615,-0.153185,-0.386177,0.000000,0.000000,0.000000,-1,-0.030300,-0.212973,-0.352509,0.026512,-0.066282,-0.037682
"2018-06-07 01:17:15.194 +0000",1528334235.194429,1.166453,0.158408,0.404741,0.907849,-0.157746,-0.388489,0.000000,0.000000,0.000000,-1,0.172080,-0.186805,-0.175415,0.048419,-0.050597,0.022995
"2018-06-07 01:17:15.205 +0000",1528334235.204503,1.162122,0.161234,0.401624,0.905745,-0.160537,-0.392239,0.000000,0.000000,0.000000,-1,0.350087,-0.297543,-0.090093,0.057405,-0.059541,-0.062595
"2018-06-07 01:17:15.215 +0000",1528334235.214577,1.160193,0.162802,0.397984,0.904755,-0.162083,-0.393884,0.000000,0.000000,0.000000,-1,0.441860,-0.213647,0.121843,0.072784,-0.150447,0.050592
"2018-06-07 01:17:15.225 +0000",1528334235.224651,1.159441,0.165641,0.394903,0.904033,-0.164885,-0.394379,0.000000,0.000000,0.000000,-1,0.300403,-0.300624,0.088568,0.033925,-0.112276,0.032165
"2018-06-07 01:17:15.235 +0000",1528334235.234725,1.156484,0.167295,0.393750,0.902612,-0.166516,-0.396940,0.000000,0.000000,0.000000,-1,0.048604,-0.273139,-0.088256,-0.005823,-0.056354,0.029676
"2018-06-07 01:17:15.245 +0000",1528334235.244799,1.151922,0.166690,0.394305,0.900884,-0.165920,-0.401094,0.000000,0.000000,0.000000,-1,-0.117891,-0.212916,-0.161919,-0.031591,-0.042454,0.042330
"2018-06-07 01:17:15.255 +0000",1528334235.254873,1.146629,0.164697,0.395671,0.899048,-0.163953,-0.405993,0.000000,0.000000,0.000000,-1,-0.197367,-0.208553,-0.207977,-0.047241,-0.010058,0.010058
"2018-06-07 01:17:15.265 +0000",1528334235.264947,1.143602,0.163527,0.396779,0.897989,-0.162799,-0.408791,0.000000,0.000000,0.000000,-1,-0.237997,-0.331498,-0.236209,-0.055017,-0.016461,-0.037102
"2018-06-07 01:17:15.275 +0000",1528334235.275021,1.141384,0.161294,0.397704,0.897408,-0.160596,-0.410932,0.000000,0.000000,0.000000,-1,-0.279375,-0.449888,-0.304224,-0.061180,-0.006717,-0.050967
"2018-06-07 01:17:15.285 +0000",1528334235.285095,1.136166,0.158049,0.399391,0.895720,-0.157392,-0.415827,0.000000,0.000000,0.000000,-1,-0.368149,-0.469629,-0.367541,-0.061384,-0.027881,0.008631
"2018-06-07 01:17:15.295 +0000",1528334235.295170,1.134396,0.156230,0.400866,0.895240,-0.155595,-0.417531,0.000000,0.000000,0.000000,-1,-0.434388,-0.436327,-0.499597,-0.096641,0.022234,0.040105
"2018-06-07 01:17:15.305 +0000",1528334235.305244,1.132057,0.153402,0.401359,0.894656,-0.152801,-0.419809,0.000000,0.000000,0.000000,-1,-0.294395,-0.425890,-0.539686,-0.070193,0.051926,-0.059866
"2018-06-07 01:17:15.315 +0000",1528334235.315318,1.128325,0.151538,0.400863,0.893339,-0.150959,-0.423267,0.000000,0.000000,0.000000,-1,-0.135929,-0.589749,-0.365196,0.050661,-0.011593,-0.094174
"2018-06-07 01:17:15.325 +0000",1528334235.325392,1.122849,0.150050,0.400450,0.891209,-0.149488,-0.428249,0.000000,0.000000,0.000000,-1,-0.176790,-0.763344,-0.357002,0.087948,0.013853,-0.032810
"2018-06-07 01:17:15.335 +0000",1528334235.335466,1.114802,0.146711,0.400880,0.888177,-0.146186,-0.435624,0.000000,0.000000,0.000000,-1,-0.253245,-0.872173,-0.372202,0.081961,0.036322,0.020188
"2018-06-07 01:17:15.346 +0000",1528334235.345540,1.104689,0.143963,0.402002,0.884082,-0.143466,-0.444763,0.000000,0.000000,0.000000,-1,-0.257033,-0.930743,-0.282010,0.074231,-0.058027,-0.016419
"2018-06-07 01:17:15.356 +0000",1528334235.355614,1.094266,0.141363,0.403133,0.879727,-0.140892,-0.454123,0.000000,0.000000,0.000000,-1,-0.249779,-0.931874,-0.269122,-0.010281,-0.068489,-0.033548
"2018-06-07 01:17:15.366 +0000",1528334235.365688,1.085410,0.138711,0.403978,0.875998,-0.138267,-0.462069,0.000000,0.000000,0.000000,-1,-0.273454,-0.927284,-0.332518,-0.070380,-0.026483,0.015276
"2018-06-07 01:17:15.376 +0000",1528334235.375762,1.077318,0.134891,0.404126,0.872690,-0.134482,-0.469388,0.000000,0.000000,0.000000,-1,-0.192456,-0.889648,-0.353031,-0.097314,-0.028146,0.025769
"2018-06-07 01:17:15.386 +0000",1528334235.385836,1.068497,0.130542,0.403193,0.869019,-0.130171,-0.477346,0.000000,0.000000,0.000000,-1,-0.060876,-0.801258,-0.401479,-0.125947,-0.037355,-0.025615
"2018-06-07 01:17:15.396 +0000",1528334235.395911,1.063073,0.127277,0.400464,0.866784,-0.126934,-0.482256,0.000000,0.000000,0.000000,-1,0.110373,-0.452584,-0.450337,-0.098977,-0.004612,-0.012389
"2018-06-07 01:17:15.406 +0000",1528334235.405985,1.061789,0.125291,0.396505,0.866383,-0.124963,-0.483490,0.000000,0.000000,0.000000,-1,0.268827,-0.246308,-0.319946,-0.031117,-0.057242,0.035950
"2018-06-07 01:17:15.416 +0000",1528334235.416059,1.060211,0.124618,0.392097,0.865692,-0.124296,-0.484898,0.000000,0.000000,0.000000,-1,0.358516,-0.445207,-0.212090,-0.016800,-0.124331,-0.092678
"2018-06-07 01:17:15.426 +0000",1528334235.426133,1.053874,0.125464,0.389225,0.862510,-0.125135,-0.490322,0.000000,0.000000,0.000000,-1,0.180686,-0.830297,-0.122449,0.006997,-0.146716,-0.069279
"2018-06-07 01:17:15.436 +0000",1528334235.436207,1.045547,0.126029,0.387785,0.858336,-0.125696,-0.497451,0.000000,0.000000,0.000000,-1,0.090334,-0.841545,-0.117972,-0.019102,-0.098211,0.097778
"2018-06-07 01:17:15.446 +0000",1528334235.446281,1.037704,0.126475,0.385513,0.854360,-0.126138,-0.504139,0.000000,0.000000,0.000000,-1,0.209171,-0.848821,-0.136551,-0.053670,-0.040747,0.017354
"2018-06-07 01:17:15.456 +0000",1528334235.456355,1.028381,0.125840,0.382603,0.849691,-0.125508,-0.512124,0.000000,0.000000,0.000000,-1,0.156044,-1.023890,-0.309042,-0.072866,0.002828,-0.014686
"2018-06-07 01:17:15.466 +0000",1528334235.466429,1.017440,0.123117,0.379345,0.844325,-0.122806,-0.521567,0.000000,0.000000,0.000000,-1,0.082965,-1.101260,-0.494111,-0.084895,0.055560,0.019156
"2018-06-07 01:17:15.477 +0000",1528334235.476503,1.006895,0.117802,0.375868,0.839318,-0.117529,-0.530783,0.000000,0.000000,0.000000,-1,-0.026852,-1.059000,-0.697033,-0.028191,0.068732,0.012884
"2018-06-07 01:17:15.487 +0000",1528334235.486577,0.998223,0.111686,0.372167,0.835272,-0.111454,-0.538421,0.000000,0.000000,0.000000,-1,-0.077837,-0.934766,-0.775077,0.015406,0.022022,0.006682
"2018-06-07 01:17:15.497 +0000",1528334235.496651,0.989719,0.105747,0.368551,0.831201,-0.105550,-0.545858,0.000000,0.000000,0.000000,-1,-0.074689,-0.846892,-0.785585,0.044790,0.026967,-0.004771
"2018-06-07 01:17:15.507 +0000",1528334235.506726,0.982616,0.100432,0.364129,0.827759,-0.100263,-0.552051,0.000000,0.000000,0.000000,-1,0.028182,-0.730216,-0.791935,0.062225,0.095807,-0.034665
"2018-06-07 01:17:15.517 +0000",1528334235.516800,0.974882,0.095112,0.358124,0.823894,-0.094969,-0.558728,0.000000,0.000000,0.000000,-1,0.191016,-0.897219,-0.912191,-0.035411,0.093321,-0.114474
"2018-06-07 01:17:15.527 +0000",1528334235.526874,0.969103,0.090194,0.350838,0.821027,-0.090071,-0.563738,0.000000,0.000000,0.000000,-1,0.288983,-0.661220,-0.841812,-0.033887,0.027053,0.057863
"2018-06-07 01:17:15.537 +0000",1528334235.536948,0.963502,0.085404,0.342802,0.818201,-0.085300,-0.568567,0.000000,0.000000,0.000000,-1,0.394256,-0.650912,-0.874292,-0.054743,0.027271,0.005670
"2018-06-07 01:17:15.547 +0000",1528334235.547022,0.957275,0.082006,0.334054,0.814877,-0.081914,-0.573815,0.000000,0.000000,0.000000,-1,0.566369,-0.712591,-0.711368,0.012043,-0.042384,-0.013526
"2018-06-07 01:17:15.557 +0000",1528334235.557096,0.950352,0.081337,0.324934,0.810930,-0.081247,-0.579474,0.000000,0.000000,0.000000,-1,0.758289,-0.799558,-0.525974,0.042678,-0.073233,-0.015192
"2018-06-07 01:17:15.567 +0000",1528334235.567170,0.942594,0.080570,0.315501,0.806460,-0.080482,-0.585785,0.000000,0.000000,0.000000,-1,0.664614,-0.874038,-0.628162,-0.073748,0.109672,-0.015808
"2018-06-07 01:17:15.577 +0000",1528334235.577244,0.935134,0.078836,0.307902,0.802179,-0.078754,-0.591866,0.000000,0.000000,0.000000,-1,0.458106,-0.793687,-0.554311,0.001731,0.091648,0.050713
"2018-06-07 01:17:15.587 +0000",1528334235.587318,0.928010,0.076378,0.302163,0.798094,-0.076304,-0.597680,0.000000,0.000000,0.000000,-1,0.256131,-0.758173,-0.518249,-0.033522,0.104136,0.010110
"2018-06-07 01:17:15.597 +0000",1528334235.597392,0.920284,0.073191,0.298595,0.793643,-0.073125,-0.603972,0.000000,0.000000,0.000000,-1,0.042380,-0.826056,-0.440511,-0.030261,0.040472,-0.018480
"2018-06-07 01:17:15.607 +0000",1528334235.607467,0.912107,0.069513,0.296290,0.788884,-0.069457,-0.610602,0.000000,0.000000,0.000000,-1,-0.056446,-0.824186,-0.428447,-0.062337,0.006362,-0.043511
"2018-06-07 01:17:15.618 +0000",1528334235.617541,0.903881,0.065426,0.293465,0.784052,-0.065379,-0.617241,0.000000,0.000000,0.000000,-1,-0.000112,-0.836846,-0.513589,-0.074701,0.105907,-0.083397
"2018-06-07 01:17:15.628 +0000",1528334235.627615,0.896775,0.061587,0.289302,0.779836,-0.061548,-0.622949,0.000000,0.000000,0.000000,-1,0.112507,-0.658474,-0.566034,-0.027990,0.152109,-0.048422
"2018-06-07 01:17:15.638 +0000",1528334235.637689,0.892686,0.057565,0.284591,0.777469,-0.057533,-0.626283,0.000000,0.000000,0.000000,-1,0.103150,-0.348717,-0.616743,-0.003161,0.131599,0.025728
"2018-06-07 01:17:15.648 +0000",1528334235.647763,0.892597,0.053789,0.280160,0.777577,-0.053763,-0.626484,0.000000,0.000000,0.000000,-1,0.118982,0.058281,-0.540300,0.038677,0.030081,0.054844
"2018-06-07 01:17:15.658 +0000",1528334235.657837,0.894660,0.051199,0.275556,0.778974,-0.051177,-0.624963,0.000000,0.000000,0.000000,-1,0.251489,0.114181,-0.431801,0.057147,-0.083696,-0.041693
"2018-06-07 01:17:15.668 +0000",1528334235.667911,0.895040,0.048834,0.269951,0.779303,-0.048814,-0.624741,0.000000,0.000000,0.000000,-1,0.336332,-0.078446,-0.514304,0.036691,-0.108183,-0.116195
"2018-06-07 01:17:15.678 +0000",1528334235.677985,0.892944,0.046030,0.263728,0.778095,-0.046014,-0.626457,0.000000,0.000000,0.000000,-1,0.297304,-0.284559,-0.604093,0.095745,-0.078574,-0.057121
"2018-06-07 01:17:15.688 +0000",1528334235.688059,0.888966,0.043133,0.258150,0.775698,-0.043120,-0.629629,0.000000,0.000000,0.000000,-1,0.222625,-0.407838,-0.575238,0.126585,-0.086396,0.035467
"2018-06-07 01:17:15.698 +0000",1528334235.698133,0.883823,0.039719,0.253600,0.772559,-0.039708,-0.633699,0.000000,0.000000,0.000000,-1,0.177741,-0.440235,-0.470892,0.067422,0.021260,0.034791
"2018-06-07 01:17:15.708 +0000",1528334235.708208,0.879393,0.036417,0.249706,0.769841,-0.036409,-0.637195,0.000000,0.000000,0.000000,-1,0.162179,-0.408894,-0.363201,-0.024464,0.114427,-0.010037
"2018-06-07 01:17:15.718 +0000",1528334235.718282,0.876232,0.033561,0.247054,0.767900,-0.033555,-0.639690,0.000000,0.000000,0.000000,-1,0.075343,-0.318360,-0.282065,-0.110902,0.122804,0.023418
"2018-06-07 01:17:15.728 +0000",1528334235.728356,0.874864,0.031840,0.244528,0.767066,-0.031835,-0.640776,0.000000,0.000000,0.000000,-1,0.089964,-0.240383,-0.280796,-0.155174,0.102025,-0.037721
"2018-06-07 01:17:15.738 +0000",1528334235.738430,0.873385,0.031123,0.241782,0.766136,-0.031118,-0.641924,0.000000,0.000000,0.000000,-1,0.074701,-0.168765,-0.353697,-0.078224,0.055929,-0.031065
"2018-06-07 01:17:15.749 +0000",1528334235.748504,0.872265,0.029467,0.238388,0.765454,-0.029463,-0.642814,0.000000,0.000000,0.000000,-1,0.054554,-0.059616,-0.479184,-0.007535,0.063444,-0.054634
"2018-06-07 01:17:15.759 +0000",1528334235.758578,0.873647,0.027133,0.234338,0.766392,-0.027130,-0.641798,0.000000,0.000000,0.000000,-1,0.097691,0.112983,-0.509974,0.107784,0.071365,-0.015596
"2018-06-07 01:17:15.769 +0000",1528334235.768652,0.877466,0.025083,0.230167,0.768879,-0.025080,-0.638901,0.000000,0.000000,0.000000,-1,0.111343,0.285459,-0.531017,0.098461,0.079645,0.003799
"2018-06-07 01:17:15.779 +0000",1528334235.778726,0.880690,0.021849,0.227072,0.770994,-0.021847,-0.636467,0.000000,0.000000,0.000000,-1,0.012707,0.220960,-0.398674,0.060473,0.044460,0.004203
"2018-06-07 01:17:15.789 +0000",1528334235.788800,0.881985,0.018072,0.224313,0.771875,-0.018072,-0.635516,0.000000,0.000000,0.000000,-1,0.087085,0.134291,-0.362524,-0.000284,-0.021083,-0.020246
"2018-06-07 01:17:15.799 +0000",1528334235.798874,0.880792,0.014069,0.220868,0.771166,-0.014068,-0.636477,0.000000,0.000000,0.000000,-1,0.110870,-0.078351,-0.424509,-0.028002,-0.055756,-0.076856
"2018-06-07 01:17:15.809 +0000",1528334235.808949,0.877663,0.010131,0.216331,0.769207,-0.010131,-0.638918,0.000000,0.000000,0.000000,-1,0.210466,-0.158879,-0.527158,0.023105,-0.071900,-0.030424
"2018-06-07 01:17:15.819 +0000",1528334235.819023,0.874391,0.006543,0.210934,0.767136,-0.006543,-0.641450,0.000000,0.000000,0.000000,-1,0.185970,-0.237639,-0.610156,0.069610,-0.042286,-0.002914
"2018-06-07 01:17:15.829 +0000",1528334235.829097,0.872305,0.001948,0.206166,0.765811,-0.001948,-0.643061,0.000000,0.000000,0.000000,-1,0.083960,-0.133650,-0.606393,0.137677,0.067332,0.073374
"2018-06-07 01:17:15.839 +0000",1528334235.839171,0.871720,-0.002702,0.202596,0.765433,0.002702,-0.643508,0.000000,0.000000,0.000000,-1,-0.036421,-0.094795,-0.527482,0.092416,0.116774,0.028335
"2018-06-07 01:17:15.849 +0000",1528334235.849245,0.871175,-0.007615,0.201591,0.765063,0.007615,-0.643909,0.000000,0.000000,0.000000,-1,-0.255074,-0.197124,-0.354100,0.059476,0.137328,-0.016629
"2018-06-07 01:17:15.859 +0000",1528334235.859319,0.868210,-0.012238,0.202374,0.763116,0.012238,-0.646145,0.000000,0.000000,0.000000,-1,-0.362606,-0.401931,-0.277003,-0.100167,0.125091,-0.109974
"2018-06-07 01:17:15.869 +0000",1528334235.869393,0.863741,-0.016119,0.203151,0.760179,0.016119,-0.649513,0.000000,0.000000,0.000000,-1,-0.327824,-0.416047,-0.291107,-0.129853,0.172312,-0.080834
"2018-06-07 01:17:15.879 +0000",1528334235.879467,0.859787,-0.018832,0.202886,0.757568,0.018831,-0.652483,0.000000,0.000000,0.000000,-1,-0.173594,-0.298188,-0.283588,0.027054,0.064817,-0.011961
"2018-06-07 01:17:15.890 +0000",1528334235.889541,0.857051,-0.020747,0.201585,0.755752,0.020746,-0.654528,0.000000,0.000000,0.000000,-1,-0.084074,-0.290119,-0.316039,0.023453,-0.097284,0.012163
"2018-06-07 01:17:15.900 +0000",1528334235.899615,0.854908,-0.023513,0.200212,0.754301,0.023511,-0.656106,0.000000,0.000000,0.000000,-1,-0.137310,-0.265923,-0.362099,0.013414,-0.151807,0.044289
"2018-06-07 01:17:15.910 +0000",1528334235.909690,0.853277,-0.027903,0.199076,0.753145,0.027899,-0.657261,0.000000,0.000000,0.000000,-1,-0.183289,-0.314249,-0.386874,0.029326,-0.097189,0.007542
"2018-06-07 01:17:15.920 +0000",1528334235.919764,0.850244,-0.032174,0.197696,0.751052,0.032168,-0.659458,0.000000,0.000000,0.000000,-1,-0.098466,-0.391035,-0.344266,0.047959,-0.075183,-0.048901
"2018-06-07 01:17:15.930 +0000",1528334235.929838,0.845937,-0.035507,0.195900,0.748120,0.035499,-0.662612,0.000000,0.000000,0.000000,-1,-0.016866,-0.478854,-0.290926,0.040118,-0.042961,-0.064424
"2018-06-07 01:17:15.940 +0000",1528334235.939912,0.840313,-0.038675,0.194187,0.744294,0.038665,-0.666730,0.000000,0.000000,0.000000,-1,-0.028529,-0.443799,-0.281117,0.011962,0.013062,-0.020282
"2018-06-07 01:17:15.950 +0000",1528334235.949986,0.834580,-0.042528,0.192260,0.740344,0.042516,-0.670881,0.000000,0.000000,0.000000,-1,-0.024006,-0.460086,-0.320973,-0.035617,0.040889,-0.002688
"2018-06-07 01:17:15.960 +0000",1528334235.960060,0.829519,-0.045584,0.189980,0.736840,0.045568,-0.674528,0.000000,0.000000,0.000000,-1,-0.023612,-0.551032,-0.361038,-0.052514,-0.047140,-0.011781
"2018-06-07 01:17:15.970 +0000",1528334235.970134,0.824217,-0.047952,0.188426,0.733172,0.047934,-0.678351,0.000000,0.000000,0.000000,-1,-0.160258,-0.541583,-0.348865,-0.029665,-0.042334,0.036169
"2018-06-07 01:17:15.980 +0000",1528334235.980208,0.820316,-0.050175,0.188356,0.730440,0.050154,-0.681131,0.000000,0.000000,0.000000,-1,-0.284810,-0.448904,-0.280545,-0.023897,0.051516,0.039835
"2018-06-07 01:17:15.990 +0000",1528334235.990282,0.815866,-0.052945,0.188549,0.727298,0.052921,-0.684277,0.000000,0.000000,0.000000,-1,-0.249073,-0.516888,-0.275446,-0.032703,0.098187,-0.077885
"2018-06-07 01:17:16.000 +0000",1528334236.000356,0.810712,-0.055601,0.187571,0.723657,0.055572,-0.687917,0.000000,0.000000,0.000000,-1,-0.146725,-0.526235,-0.334868,0.000784,0.045090,-0.095851
"2018-06-07 01:17:16.010 +0000",1528334236.010431,0.806152,-0.058214,0.185808,0.720406,0.058181,-0.691107,0.000000,0.000000,0.000000,-1,-0.066890,-0.432649,-0.347686,0.066627,-0.062056,-0.005304
"2018-06-07 01:17:16.021 +0000",1528334236.020505,0.802390,-0.060870,0.183461,0.717687,0.060832,-0.693702,0.000000,0.000000,0.000000,-1,-0.017413,-0.376435,-0.369149,0.013026,-0.132045,0.035285
"2018-06-07 01:17:16.031 +0000",1528334236.030579,0.798539,-0.064659,0.180906,0.714840,0.064614,-0.696296,0.000000,0.000000,0.000000,-1,-0.075670,-0.377389,-0.442162,0.023549,-0.083413,0.056723
"2018-06-07 01:17:16.041 +0000",1528334236.040653,0.793186,-0.068159,0.178288,0.710937,0.068106,-0.699949,0.000000,0.000000,0.000000,-1,-0.129650,-0.558420,-0.502804,0.044327,-0.145789,0.047971
"2018-06-07 01:17:16.051 +0000",1528334236.050727,0.785929,-0.072378,0.175481,0.705629,0.072315,-0.704880,0.000000,0.000000,0.000000,-1,-0.142615,-0.818386,-0.560540,-0.025743,-0.135394,0.034546
"2018-06-07 01:17:16.061 +0000",1528334236.060801,0.776969,-0.077623,0.172388,0.699010,0.077545,-0.710894,0.000000,0.000000,0.000000,-1,-0.118398,-0.955579,-0.551314,-0.099400,-0.076294,0.037585
"2018-06-07 01:17:16.071 +0000",1528334236.070875,0.766333,-0.082953,0.169476,0.691113,0.082858,-0.717980,0.000000,0.000000,0.000000,-1,-0.123962,-1.008485,-0.504126,-0.129483,0.046232,0.062615
"2018-06-07 01:17:16.081 +0000",1528334236.080949,0.756227,-0.086413,0.166230,0.683621,0.086305,-0.724715,0.000000,0.000000,0.000000,-1,0.028942,-0.939107,-0.454795,-0.159970,0.087172,0.023101
"2018-06-07 01:17:16.091 +0000",1528334236.091023,0.747909,-0.087531,0.161759,0.677503,0.087419,-0.730305,0.000000,0.000000,0.000000,-1,0.213704,-0.844189,-0.453866,-0.150022,0.133696,-0.004451
"2018-06-07 01:17:16.101 +0000",1528334236.101097,0.740261,-0.087367,0.157107,0.671908,0.087256,-0.735476,0.000000,0.000000,0.000000,-1,0.224734,-0.763167,-0.395571,-0.060396,0.042673,0.011080
"2018-06-07 01:17:16.111 +0000",1528334236.111172,0.733099,-0.088398,0.153746,0.666562,0.088283,-0.740202,0.000000,0.000000,0.000000,-1,0.045954,-0.775868,-0.365081,-0.043790,0.009495,0.000441
"2018-06-07 01:17:16.121 +0000",1528334236.121246,0.726427,-0.089412,0.151856,0.661549,0.089293,-0.744565,0.000000,0.000000,0.000000,-1,-0.060881,-0.743625,-0.271161,0.018672,0.055543,-0.057208
"2018-06-07 01:17:16.131 +0000",1528334236.131320,0.719603,-0.090110,0.151010,0.656412,0.089988,-0.749015,0.000000,0.000000,0.000000,-1,-0.079621,-0.701324,-0.161279,-0.003000,0.055184,-0.134499
"2018-06-07 01:17:16.141 +0000",1528334236.141394,0.713178,-0.090361,0.150311,0.651571,0.090238,-0.753200,0.000000,0.000000,0.000000,-1,0.003870,-0.615714,-0.102061,-0.070761,0.055682,-0.113560
"2018-06-07 01:17:16.151 +0000",1528334236.151468,0.707665,-0.090799,0.148578,0.647383,0.090674,-0.756751,0.000000,0.000000,0.000000,-1,0.146962,-0.517429,-0.146204,-0.143980,0.028146,-0.035272
"2018-06-07 01:17:16.162 +0000",1528334236.161542,0.702005,-0.091532,0.145871,0.643046,0.091404,-0.760352,0.000000,0.000000,0.000000,-1,0.163205,-0.475381,-0.214960,-0.124049,0.022289,0.053839
"2018-06-07 01:17:16.172 +0000",1528334236.171616,0.697161,-0.093260,0.142848,0.639253,0.093124,-0.763336,0.000000,0.000000,0.000000,-1,0.116515,-0.397215,-0.299602,-0.088259,0.079849,0.091735
"2018-06-07 01:17:16.182 +0000",1528334236.181690,0.692462,-0.094638,0.139321,0.635577,0.094497,-0.766232,0.000000,0.000000,0.000000,-1,0.150482,-0.448548,-0.339628,-0.075091,0.088151,0.021587
"2018-06-07 01:17:16.192 +0000",1528334236.191764,0.687700,-0.095412,0.135690,0.631874,0.095268,-0.769193,0.000000,0.000000,0.000000,-1,0.172355,-0.436506,-0.317055,-0.082070,0.032097,0.013623
"2018-06-07 01:17:16.202 +0000",1528334236.201838,0.683383,-0.095934,0.132007,0.628516,0.095787,-0.771875,0.000000,0.000000,0.000000,-1,0.230923,-0.399136,-0.289113,-0.081961,0.072197,-0.033667
"2018-06-07 01:17:16.212 +0000",1528334236.211912,0.677856,-0.094721,0.127681,0.624313,0.094580,-0.775427,0.000000,0.000000,0.000000,-1,0.445864,-0.516267,-0.225407,-0.085815,-0.022131,-0.069864
"2018-06-07 01:17:16.222 +0000",1528334236.221987,0.670906,-0.091415,0.122394,0.619099,0.091288,-0.779988,0.000000,0.000000,0.000000,-1,0.639772,-0.607110,-0.161577,-0.118870,-0.040491,-0.003658
"2018-06-07 01:17:16.232 +0000",1528334236.232061,0.664521,-0.088580,0.119157,0.614264,0.088464,-0.784125,0.000000,0.000000,0.000000,-1,0.314052,-0.517490,-0.020737,-0.060599,-0.009714,0.089896
"2018-06-07 01:17:16.242 +0000",1528334236.242135,0.658352,-0.088575,0.119520,0.609415,0.088459,-0.787900,0.000000,0.000000,0.000000,-1,-0.074074,-0.636393,0.065858,0.015921,0.060207,-0.001864
"2018-06-07 01:17:16.252 +0000",1528334236.252209,0.651561,-0.089803,0.120414,0.603984,0.089682,-0.791934,0.000000,0.000000,0.000000,-1,-0.055036,-0.763676,0.064368,0.004109,0.080774,-0.192960
"2018-06-07 01:17:16.262 +0000",1528334236.262283,0.642859,-0.090269,0.119772,0.597045,0.090146,-0.797126,0.000000,0.000000,0.000000,-1,0.138496,-0.861267,-0.095554,0.005082,-0.033444,-0.225824
"2018-06-07 01:17:16.272 +0000",1528334236.272357,0.634111,-0.089271,0.115689,0.590102,0.089153,-0.802390,0.000000,0.000000,0.000000,-1,0.385914,-0.792686,-0.317504,0.063493,0.106633,-0.183984
"2018-06-07 01:17:16.282 +0000",1528334236.282431,0.628109,-0.087795,0.109135,0.585352,0.087683,-0.806023,0.000000,0.000000,0.000000,-1,0.514838,-0.422858,-0.465163,0.138113,0.124079,0.002541
"2018-06-07 01:17:16.293 +0000",1528334236.292505,0.627104,-0.087541,0.103010,0.584554,0.087430,-0.806629,0.000000,0.000000,0.000000,-1,0.304271,0.071634,-0.461091,0.093577,0.128955,0.171208
"2018-06-07 01:17:16.303 +0000",1528334236.302579,0.629912,-0.090190,0.099653,0.586679,0.090068,-0.804794,0.000000,0.000000,0.000000,-1,-0.130178,0.378699,-0.412950,-0.116800,0.227407,0.146912
"2018-06-07 01:17:16.313 +0000",1528334236.312653,0.635443,-0.094477,0.098990,0.590887,0.094336,-0.801219,0.000000,0.000000,0.000000,-1,-0.320571,0.581734,-0.264560,-0.264165,0.248300,-0.037297
"2018-06-07 01:17:16.323 +0000",1528334236.322728,0.641816,-0.097237,0.098919,0.595822,0.097084,-0.797226,0.000000,0.000000,0.000000,-1,-0.163957,0.647559,-0.150708,-0.231366,-0.028770,-0.106262
"2018-06-07 01:17:16.333 +0000",1528334236.332802,0.647663,-0.099073,0.098386,0.600366,0.098911,-0.793584,0.000000,0.000000,0.000000,-1,-0.106065,0.555526,-0.155411,-0.022347,-0.212283,0.068334
"2018-06-07 01:17:16.343 +0000",1528334236.342876,0.650951,-0.100763,0.097391,0.602869,0.100593,-0.791472,0.000000,0.000000,0.000000,-1,-0.057180,0.241848,-0.190856,0.149100,-0.232719,0.167663
"2018-06-07 01:17:16.353 +0000",1528334236.352950,0.649763,-0.101516,0.095131,0.601882,0.101341,-0.792127,0.000000,0.000000,0.000000,-1,0.128370,-0.211971,-0.224871,0.136490,-0.064003,0.112974
"2018-06-07 01:17:16.363 +0000",1528334236.363024,0.644450,-0.101253,0.092816,0.597681,0.101080,-0.795335,0.000000,0.000000,0.000000,-1,0.130254,-0.601994,-0.148563,0.031606,0.067773,0.025697
"2018-06-07 01:17:16.373 +0000",1528334236.373098,0.636367,-0.102348,0.092402,0.591168,0.102170,-0.800050,0.000000,0.000000,0.000000,-1,-0.129461,-0.834620,-0.083031,-0.070278,0.113712,-0.160246
"2018-06-07 01:17:16.383 +0000",1528334236.383172,0.627701,-0.104351,0.092916,0.584090,0.104162,-0.804976,0.000000,0.000000,0.000000,-1,-0.188279,-0.862242,-0.079750,0.002290,0.055582,-0.216981
"2018-06-07 01:17:16.393 +0000",1528334236.393246,0.620505,-0.105529,0.092542,0.578211,0.105333,-0.809058,0.000000,0.000000,0.000000,-1,-0.014999,-0.645401,-0.103180,0.085851,0.023421,-0.133050
"2018-06-07 01:17:16.403 +0000",1528334236.403320,0.615916,-0.104995,0.090640,0.574525,0.104802,-0.811749,0.000000,0.000000,0.000000,-1,0.189809,-0.370251,-0.136193,0.101882,-0.014439,-0.002796
"2018-06-07 01:17:16.413 +0000",1528334236.413394,0.613713,-0.105139,0.088322,0.572726,0.104946,-0.813000,0.000000,0.000000,0.000000,-1,0.077782,-0.137519,-0.211631,0.068295,0.001988,0.150738
"2018-06-07 01:17:16.423 +0000",1528334236.423468,0.613537,-0.106600,0.086595,0.572494,0.106398,-0.812975,0.000000,0.000000,0.000000,-1,-0.044172,0.046600,-0.219421,0.066178,-0.021605,0.149370
"2018-06-07 01:17:16.434 +0000",1528334236.433543,0.614939,-0.108111,0.085464,0.573540,0.107901,-0.812039,0.000000,0.000000,0.000000,-1,-0.063656,0.173638,-0.159846,0.006675,-0.003714,0.096295
"2018-06-07 01:17:16.444 +0000",1528334236.443617,0.615937,-0.109440,0.084777,0.574267,0.109222,-0.811348,0.000000,0.000000,0.000000,-1,-0.063768,0.068136,-0.132186,-0.078051,0.052628,0.000420
"2018-06-07 01:17:16.454 +0000",1528334236.453691,0.615235,-0.110248,0.083377,0.573646,0.110025,-0.811679,0.000000,0.000000,0.000000,-1,0.051131,-0.099365,-0.165206,-0.083229,0.084403,-0.090329
"2018-06-07 01:17:16.464 +0000",1528334236.463765,0.611714,-0.110024,0.080839,0.570799,0.109802,-0.813714,0.000000,0.000000,0.000000,-1,0.192504,-0.412754,-0.208391,-0.012114,0.010147,-0.097098
"2018-06-07 01:17:16.474 +0000",1528334236.473839,0.604807,-0.109837,0.077368,0.565176,0.109616,-0.817654,0.000000,0.000000,0.000000,-1,0.207074,-0.717552,-0.289985,0.023615,-0.004178,-0.057925
"2018-06-07 01:17:16.484 +0000",1528334236.483913,0.596466,-0.110231,0.073844,0.558313,0.110008,-0.822304,0.000000,0.000000,0.000000,-1,0.144276,-0.785703,-0.310477,0.091422,-0.032646,-0.039970
"2018-06-07 01:17:16.494 +0000",1528334236.493987,0.589797,-0.111187,0.070928,0.552758,0.110958,-0.825921,0.000000,0.000000,0.000000,-1,0.067256,-0.575225,-0.291402,0.057701,-0.056057,0.011911
"2018-06-07 01:17:16.504 +0000",1528334236.504061,0.585257,-0.112687,0.068102,0.548910,0.112449,-0.828283,0.000000,0.000000,0.000000,-1,0.022123,-0.362255,-0.321873,-0.051595,0.037270,0.008886
"2018-06-07 01:17:16.514 +0000",1528334236.514135,0.583918,-0.114334,0.065533,0.547698,0.114085,-0.828861,0.000000,0.000000,0.000000,-1,0.003832,-0.101139,-0.297407,-0.097029,0.057210,0.005741
"2018-06-07 01:17:16.524 +0000",1528334236.524209,0.583381,-0.115950,0.063511,0.547150,0.115690,-0.829000,0.000000,0.000000,0.000000,-1,-0.001138,0.018147,-0.212073,-0.133865,0.031115,0.016561
"2018-06-07 01:17:16.534 +0000",1528334236.534284,0.582912,-0.117386,0.062492,0.546669,0.117116,-0.829117,0.000000,0.000000,0.000000,-1,-0.038731,0.014294,-0.103358,-0.163536,0.054255,-0.006286
"2018-06-07 01:17:16.544 +0000",1528334236.544358,0.582180,-0.118131,0.062511,0.546014,0.117856,-0.829444,0.000000,0.000000,0.000000,-1,-0.069703,-0.079430,-0.025037,-0.169121,0.084872,-0.072762
"2018-06-07 01:17:16.554 +0000",1528334236.554432,0.580926,-0.118328,0.062598,0.544961,0.118052,-0.830109,0.000000,0.000000,0.000000,-1,-0.006752,-0.142997,-0.008156,-0.139352,0.124013,-0.137512
"2018-06-07 01:17:16.565 +0000",1528334236.564506,0.580108,-0.117176,0.062142,0.544355,0.116908,-0.830668,0.000000,0.000000,0.000000,-1,0.135962,-0.107525,0.004528,-0.078321,0.182744,-0.157415
"2018-06-07 01:17:16.575 +0000",1528334236.574580,0.579575,-0.114516,0.060716,0.544081,0.114266,-0.831215,0.000000,0.000000,0.000000,-1,0.302003,-0.075164,-0.010817,-0.038221,0.170418,-0.137108
"2018-06-07 01:17:16.585 +0000",1528334236.584654,0.578374,-0.111835,0.058149,0.543248,0.111602,-0.832121,0.000000,0.000000,0.000000,-1,0.411569,-0.057105,-0.056193,-0.000355,0.117707,-0.056887
"2018-06-07 01:17:16.595 +0000",1528334236.594728,0.577115,-0.109346,0.055037,0.542350,0.109128,-0.833034,0.000000,0.000000,0.000000,-1,0.418092,-0.013032,-0.090500,0.032723,0.042316,0.048717
"2018-06-07 01:17:16.605 +0000",1528334236.604802,0.576438,-0.107165,0.052063,0.541914,0.106960,-0.833599,0.000000,0.000000,0.000000,-1,0.348714,0.077906,-0.094379,-0.012022,0.022908,0.089641
"2018-06-07 01:17:16.615 +0000",1528334236.614876,0.575986,-0.106036,0.049575,0.541602,0.105837,-0.833945,0.000000,0.000000,0.000000,-1,0.259474,0.087564,-0.100601,-0.103324,0.088361,0.035483
"2018-06-07 01:17:16.625 +0000",1528334236.624950,0.574427,-0.104632,0.047167,0.540382,0.104441,-0.834912,0.000000,0.000000,0.000000,-1,0.327572,-0.038650,-0.062400,-0.175773,0.111394,-0.077106
"2018-06-07 01:17:16.635 +0000",1528334236.635024,0.572231,-0.102245,0.044628,0.538680,0.102067,-0.836304,0.000000,0.000000,0.000000,-1,0.422830,-0.095675,-0.013305,-0.214522,0.044356,-0.061264
"2018-06-07 01:17:16.645 +0000",1528334236.645099,0.569867,-0.099409,0.041702,0.536856,0.099245,-0.837815,0.000000,0.000000,0.000000,-1,0.524696,-0.085515,-0.012433,-0.197257,0.056334,-0.013457
"2018-06-07 01:17:16.655 +0000",1528334236.655173,0.568844,-0.096652,0.038890,0.536144,0.096501,-0.838592,0.000000,0.000000,0.000000,-1,0.503400,0.041675,0.009499,-0.107112,0.080699,0.032439
"2018-06-07 01:17:16.665 +0000",1528334236.665247,0.569211,-0.093461,0.036293,0.536615,0.093325,-0.838650,0.000000,0.000000,0.000000,-1,0.506389,0.089922,0.024691,-0.033594,0.059522,0.020000
"2018-06-07 01:17:16.675 +0000",1528334236.675321,0.570373,-0.089563,0.033830,0.537781,0.089443,-0.838325,0.000000,0.000000,0.000000,-1,0.500061,0.082202,0.028986,0.005218,0.007312,0.012276
"2018-06-07 01:17:16.685 +0000",1528334236.685395,0.571317,-0.085826,0.031571,0.538750,0.085720,-0.838093,0.000000,0.000000,0.000000,-1,0.452776,0.076567,0.032305,0.024025,-0.005886,0.030750
"2018-06-07 01:17:16.695 +0000",1528334236.695469,0.571578,-0.083187,0.029640,0.539088,0.083091,-0.838140,0.000000,0.000000,0.000000,-1,0.378160,0.101599,0.034700,0.051198,0.002145,0.023214
"2018-06-07 01:17:16.706 +0000",1528334236.705543,0.571771,-0.080980,0.028161,0.539348,0.080892,-0.838187,0.000000,0.000000,0.000000,-1,0.323287,0.168305,0.059759,0.068470,-0.025716,0.017341
"2018-06-07 01:17:16.716 +0000",1528334236.715617,0.572071,-0.078566,0.027047,0.539704,0.078486,-0.838187,0.000000,0.000000,0.000000,-1,0.291617,0.179114,0.079225,0.037810,-0.028467,0.001395
"2018-06-07 01:17:16.726 +0000",1528334236.725691,0.572840,-0.076290,0.026289,0.540444,0.076216,-0.837920,0.000000,0.000000,0.000000,-1,0.270308,0.226118,0.112755,0.008308,-0.003858,0.006988
"2018-06-07 01:17:16.736 +0000",1528334236.735765,0.576078,-0.073885,0.026567,0.543252,0.073817,-0.836317,0.000000,0.000000,0.000000,-1,0.231469,0.415462,0.223111,0.011237,-0.074733,0.084288
"2018-06-07 01:17:16.746 +0000",1528334236.745839,0.580533,-0.071212,0.028062,0.547079,0.071152,-0.834051,0.000000,0.000000,0.000000,-1,0.166688,0.440156,0.312610,-0.019903,-0.072663,0.086278
"2018-06-07 01:17:16.756 +0000",1528334236.755914,0.584468,-0.068349,0.030278,0.550467,0.068296,-0.832058,0.000000,0.000000,0.000000,-1,0.119154,0.350912,0.358712,-0.054098,0.017520,0.003262
"2018-06-07 01:17:16.766 +0000",1528334236.765988,0.587602,-0.065402,0.033097,0.553181,0.065355,-0.830492,0.000000,0.000000,0.000000,-1,0.087288,0.257270,0.416597,-0.025349,0.078642,-0.065168
"2018-06-07 01:17:16.776 +0000",1528334236.776062,0.590697,-0.062350,0.036856,0.555858,0.062310,-0.828938,0.000000,0.000000,0.000000,-1,0.043517,0.269943,0.507088,0.019689,0.092460,-0.083431
"2018-06-07 01:17:16.786 +0000",1528334236.786136,0.594221,-0.058693,0.041636,0.558899,0.058659,-0.827157,0.000000,0.000000,0.000000,-1,0.039471,0.281525,0.622225,0.048279,0.074382,-0.080268
"2018-06-07 01:17:16.796 +0000",1528334236.796210,0.596992,-0.054145,0.047152,0.561333,0.054118,-0.825818,0.000000,0.000000,0.000000,-1,0.060813,0.236162,0.721004,0.035011,0.049871,-0.100192
"2018-06-07 01:17:16.806 +0000",1528334236.806284,0.600371,-0.049790,0.053370,0.564248,0.049770,-0.824103,0.000000,0.000000,0.000000,-1,0.015096,0.344469,0.779508,-0.017572,0.032200,-0.031397
"2018-06-07 01:17:16.816 +0000",1528334236.816358,0.604809,-0.044679,0.060179,0.568037,0.044664,-0.821789,0.000000,0.000000,0.000000,-1,-0.007337,0.382643,0.823772,-0.017500,0.009123,-0.019596
"2018-06-07 01:17:16.826 +0000",1528334236.826432,0.609658,-0.039562,0.067381,0.572139,0.039552,-0.819202,0.000000,0.000000,0.000000,-1,-0.029766,0.468048,0.861720,-0.006648,-0.028352,0.018634
"2018-06-07 01:17:16.837 +0000",1528334236.836506,0.614949,-0.035476,0.075116,0.576554,0.035469,-0.816288,0.000000,0.000000,0.000000,-1,-0.081663,0.603863,0.900957,-0.001175,-0.028724,0.081272
"2018-06-07 01:17:16.847 +0000",1528334236.846580,0.622054,-0.032343,0.083327,0.582400,0.032337,-0.812258,0.000000,0.000000,0.000000,-1,-0.159547,0.826523,0.894253,-0.013247,-0.126743,0.113771
"2018-06-07 01:17:16.857 +0000",1528334236.856655,0.630618,-0.029570,0.091738,0.589386,0.029566,-0.807309,0.000000,0.000000,0.000000,-1,-0.212063,0.867016,0.889113,-0.056259,-0.150599,0.052930
"2018-06-07 01:17:16.867 +0000",1528334236.866729,0.638031,-0.026216,0.099651,0.595410,0.026213,-0.802993,0.000000,0.000000,0.000000,-1,-0.116016,0.702787,0.848617,-0.017910,-0.076064,-0.018250
"2018-06-07 01:17:16.877 +0000",1528334236.876803,0.643455,-0.021945,0.105993,0.599818,0.021944,-0.799834,0.000000,0.000000,0.000000,-1,0.027688,0.510347,0.760601,0.010198,-0.002824,-0.037263
"2018-06-07 01:17:16.887 +0000",1528334236.886877,0.647428,-0.017427,0.111636,0.603045,0.017426,-0.797516,0.000000,0.000000,0.000000,-1,0.033204,0.417147,0.737728,0.082273,0.005874,-0.017655
"2018-06-07 01:17:16.897 +0000",1528334236.896951,0.651502,-0.013264,0.117832,0.606327,0.013264,-0.795103,0.000000,0.000000,0.000000,-1,-0.050919,0.437730,0.747662,0.127803,-0.061070,0.030226
"2018-06-07 01:17:16.907 +0000",1528334236.907025,0.656586,-0.009994,0.124482,0.610385,0.009994,-0.792040,0.000000,0.000000,0.000000,-1,-0.177807,0.533043,0.709506,0.094220,-0.143752,0.041293
"2018-06-07 01:17:16.917 +0000",1528334236.917099,0.658512,-0.009494,0.124070,0.611913,0.009494,-0.790867,0.000000,0.000000,0.000000,-1,0.201507,-0.043360,-0.332112,0.050822,-0.079089,-0.097942
"2018-06-07 01:17:16.927 +0000",1528334236.927173,0.651476,-0.010659,0.116993,0.606326,0.010659,-0.795143,0.000000,0.000000,0.000000,-1,0.305821,-0.871514,-0.683269,0.167432,-0.198968,-0.162834
"2018-06-07 01:17:16.937 +0000",1528334236.937247,0.641580,-0.011738,0.110960,0.598420,0.011738,-0.801095,0.000000,0.000000,0.000000,-1,0.197583,-0.944908,-0.530493,0.173583,-0.123264,0.009073
"2018-06-07 01:17:16.947 +0000",1528334236.947321,0.632870,-0.013370,0.106958,0.591408,0.013370,-0.806260,0.000000,0.000000,0.000000,-1,0.062016,-0.844851,-0.396512,0.103782,0.040600,0.029496
"2018-06-07 01:17:16.957 +0000",1528334236.957396,0.624264,-0.015552,0.104260,0.584429,0.015551,-0.811295,0.000000,0.000000,0.000000,-1,-0.048761,-0.842132,-0.332787,0.027373,0.113401,-0.042740
"2018-06-07 01:17:16.967 +0000",1528334236.967470,0.615702,-0.018351,0.102362,0.577434,0.018350,-0.816230,0.000000,0.000000,0.000000,-1,-0.132927,-0.896261,-0.308012,-0.070613,0.026953,-0.033913
"2018-06-07 01:17:16.978 +0000",1528334236.977544,0.605662,-0.021401,0.100531,0.569175,0.021399,-0.821936,0.000000,0.000000,0.000000,-1,-0.165992,-1.101445,-0.353710,-0.062309,0.046365,-0.072259
"2018-06-07 01:17:16.988 +0000",1528334236.987618,0.593767,-0.024616,0.097873,0.559317,0.024614,-0.828587,0.000000,0.000000,0.000000,-1,-0.142034,-1.237108,-0.447741,-0.037726,0.059233,-0.081890
"2018-06-07 01:17:16.998 +0000",1528334236.997692,0.582007,-0.027887,0.094241,0.549487,0.027884,-0.835036,0.000000,0.000000,0.000000,-1,-0.071296,-1.135665,-0.507844,-0.022082,0.024835,-0.026842
"2018-06-07 01:17:17.008 +0000",1528334237.007766,0.572184,-0.030407,0.089667,0.541219,0.030402,-0.840331,0.000000,0.000000,0.000000,-1,0.017135,-0.951885,-0.556992,-0.019810,0.049584,0.010589
"2018-06-07 01:17:17.018 +0000",1528334237.017840,0.563480,-0.032550,0.084641,0.533848,0.032544,-0.844953,0.000000,0.000000,0.000000,-1,0.064207,-0.904631,-0.537600,0.001095,0.035312,-0.002291
"2018-06-07 01:17:17.028 +0000",1528334237.027914,0.555189,-0.034020,0.080964,0.526798,0.034014,-0.849309,0.000000,0.000000,0.000000,-1,0.081446,-0.829707,-0.329822,0.027630,-0.051424,0.019551
"2018-06-07 01:17:17.038 +0000",1528334237.037988,0.548326,-0.034182,0.079079,0.520954,0.034175,-0.852899,0.000000,0.000000,0.000000,-1,0.113159,-0.652723,-0.104570,0.010906,-0.084926,0.065973
"2018-06-07 01:17:17.048 +0000",1528334237.048062,0.543088,-0.033093,0.078472,0.516498,0.033087,-0.855648,0.000000,0.000000,0.000000,-1,0.131859,-0.472132,0.036821,-0.016376,-0.089544,0.079448
"2018-06-07 01:17:17.058 +0000",1528334237.058137,0.539375,-0.031359,0.078250,0.513347,0.031354,-0.857607,0.000000,0.000000,0.000000,-1,0.180782,-0.330552,0.076920,-0.042949,-0.082364,0.068377
"2018-06-07 01:17:17.068 +0000",1528334237.068211,0.536430,-0.029500,0.077805,0.510848,0.029496,-0.859164,0.000000,0.000000,0.000000,-1,0.198679,-0.270071,0.064147,-0.065398,-0.093979,0.049823
"2018-06-07 01:17:17.078 +0000",1528334237.078285,0.534337,-0.027528,0.077320,0.509077,0.027525,-0.860280,0.000000,0.000000,0.000000,-1,0.189241,-0.183320,0.051513,-0.090788,-0.134123,0.060033
"2018-06-07 01:17:17.088 +0000",1528334237.088359,0.533027,-0.026686,0.075967,0.507962,0.026683,-0.860965,0.000000,0.000000,0.000000,-1,0.115964,-0.116916,-0.125607,-0.127316,-0.157984,0.071430
"2018-06-07 01:17:17.098 +0000",1528334237.098433,0.531245,-0.027755,0.074054,0.506412,0.027752,-0.861844,0.000000,0.000000,0.000000,-1,-0.039697,-0.192677,-0.225506,-0.102817,-0.125576,0.038007
"2018-06-07 01:17:17.109 +0000",1528334237.108507,0.529333,-0.029979,0.073764,0.504730,0.029975,-0.862756,0.000000,0.000000,0.000000,-1,-0.211868,-0.170617,-0.102424,-0.035507,-0.081809,0.003945
"2018-06-07 01:17:17.119 +0000",1528334237.118581,0.528660,-0.032660,0.074398,0.504107,0.032654,-0.863023,0.000000,0.000000,0.000000,-1,-0.269923,-0.029250,-0.082519,-0.006381,-0.002015,-0.010436
"2018-06-07 01:17:17.129 +0000",1528334237.128655,0.529649,-0.035200,0.074899,0.504917,0.035193,-0.862449,0.000000,0.000000,0.000000,-1,-0.222782,0.133368,-0.086456,0.035518,0.064249,-0.004815
"2018-06-07 01:17:17.139 +0000",1528334237.138730,0.531454,-0.036858,0.074539,0.506443,0.036849,-0.861485,0.000000,0.000000,0.000000,-1,-0.087041,0.186601,-0.125335,0.059140,0.089295,-0.017574
"2018-06-07 01:17:17.149 +0000",1528334237.148804,0.532939,-0.037708,0.072683,0.507705,0.037699,-0.860705,0.000000,0.000000,0.000000,-1,0.055630,0.138050,-0.233368,0.050599,0.065847,-0.019117
"2018-06-07 01:17:17.159 +0000",1528334237.158878,0.534113,-0.037947,0.068974,0.508711,0.037938,-0.860100,0.000000,0.000000,0.000000,-1,0.204678,0.140082,-0.357402,0.038759,0.049678,0.002983
"2018-06-07 01:17:17.169 +0000",1528334237.168953,0.535383,-0.036664,0.063540,0.509827,0.036656,-0.859495,0.000000,0.000000,0.000000,-1,0.326373,0.195832,-0.482294,0.021331,0.023235,0.041349
"2018-06-07 01:17:17.179 +0000",1528334237.179027,0.536212,-0.036504,0.055892,0.510543,0.036496,-0.859076,0.000000,0.000000,0.000000,-1,0.347324,0.139892,-0.741735,0.004014,0.036074,0.030448
"2018-06-07 01:17:17.189 +0000",1528334237.189101,0.538240,-0.037332,0.045941,0.512268,0.037323,-0.858013,0.000000,0.000000,0.000000,-1,0.422358,0.321053,-0.960811,0.019608,0.040863,0.051831
"2018-06-07 01:17:17.199 +0000",1528334237.199175,0.544320,-0.038527,0.034354,0.517451,0.038518,-0.854844,0.000000,0.000000,0.000000,-1,0.496243,0.776168,-1.063994,0.077138,0.044322,0.131562
"2018-06-07 01:17:17.209 +0000",1528334237.209249,0.550377,-0.041691,0.024041,0.522554,0.041679,-0.851586,0.000000,0.000000,0.000000,-1,0.149643,0.495133,-1.030673,0.114989,0.002709,0.029809
"2018-06-07 01:17:17.219 +0000",1528334237.219323,0.549483,-0.048580,0.014125,0.521630,0.048560,-0.851788,0.000000,0.000000,0.000000,-1,-0.096703,-0.188408,-1.282722,0.070899,0.050271,-0.236607
"2018-06-07 01:17:17.229 +0000",1528334237.229397,0.544553,-0.056459,0.001591,0.517210,0.056429,-0.853996,0.000000,0.000000,0.000000,-1,0.018673,-0.483580,-1.498974,0.046923,0.230131,-0.214379
"2018-06-07 01:17:17.239 +0000",1528334237.239471,0.538466,-0.062241,-0.011601,0.511826,0.062201,-0.856833,0.000000,0.000000,0.000000,-1,0.243524,-0.508746,-1.369409,0.062637,0.223245,-0.130181
"2018-06-07 01:17:17.250 +0000",1528334237.249545,0.534658,-0.064811,-0.024242,0.508476,0.064766,-0.858636,0.000000,0.000000,0.000000,-1,0.465322,-0.224709,-1.153962,0.019951,0.061104,-0.001365
"2018-06-07 01:17:17.260 +0000",1528334237.259619,0.532808,-0.066326,-0.036116,0.506837,0.066277,-0.859489,0.000000,0.000000,0.000000,-1,0.450952,-0.083454,-1.078223,0.007277,-0.090645,0.073616
"2018-06-07 01:17:17.270 +0000",1528334237.269694,0.531163,-0.068888,-0.047166,0.505335,0.068834,-0.860173,0.000000,0.000000,0.000000,-1,0.295465,-0.090497,-1.072509,0.034491,-0.131959,0.067296
"2018-06-07 01:17:17.280 +0000",1528334237.279768,0.529753,-0.072450,-0.057399,0.503994,0.072387,-0.860667,0.000000,0.000000,0.000000,-1,0.183828,-0.062415,-1.036676,0.061390,-0.130111,0.046474
"2018-06-07 01:17:17.290 +0000",1528334237.289842,0.528720,-0.076091,-0.066348,0.502969,0.076018,-0.860954,0.000000,0.000000,0.000000,-1,0.125073,-0.025773,-0.912735,0.046744,-0.115340,0.017280
"2018-06-07 01:17:17.300 +0000",1528334237.299916,0.527459,-0.079643,-0.074205,0.501744,0.079559,-0.861349,0.000000,0.000000,0.000000,-1,0.071988,-0.096524,-0.829995,-0.017979,-0.059432,-0.011728
"2018-06-07 01:17:17.310 +0000",1528334237.309990,0.524811,-0.083319,-0.081164,0.499311,0.083223,-0.862416,0.000000,0.000000,0.000000,-1,0.021177,-0.235272,-0.761441,-0.090513,0.015669,-0.039928
"2018-06-07 01:17:17.320 +0000",1528334237.320064,0.521440,-0.086798,-0.087587,0.496254,0.086689,-0.863838,0.000000,0.000000,0.000000,-1,0.017717,-0.291465,-0.714268,-0.127708,0.014095,-0.030144
"2018-06-07 01:17:17.330 +0000",1528334237.330138,0.517426,-0.090492,-0.093889,0.492621,0.090368,-0.865538,0.000000,0.000000,0.000000,-1,-0.022070,-0.361801,-0.721911,-0.128424,0.027994,-0.027345
"2018-06-07 01:17:17.340 +0000",1528334237.340212,0.513603,-0.093721,-0.099338,0.489162,0.093584,-0.867157,0.000000,0.000000,0.000000,-1,0.004092,-0.295355,-0.580868,-0.081432,-0.000032,-0.013656
"2018-06-07 01:17:17.350 +0000",1528334237.350286,0.511561,-0.095298,-0.103952,0.487317,0.095154,-0.868024,0.000000,0.000000,0.000000,-1,0.112084,-0.118900,-0.440768,-0.024594,-0.166672,0.025129
"2018-06-07 01:17:17.360 +0000",1528334237.360360,0.510023,-0.095836,-0.107646,0.485957,0.095690,-0.868728,0.000000,0.000000,0.000000,-1,0.132198,-0.134708,-0.322539,-0.015681,-0.236803,0.025588
"2018-06-07 01:17:17.370 +0000",1528334237.370434,0.507582,-0.096244,-0.110928,0.483816,0.096095,-0.869877,0.000000,0.000000,0.000000,-1,0.120618,-0.235802,-0.306672,-0.044073,-0.147075,0.015812
"2018-06-07 01:17:17.381 +0000",1528334237.380509,0.504093,-0.096880,-0.114754,0.480748,0.096728,-0.871506,0.000000,0.000000,0.000000,-1,0.128681,-0.346324,-0.385534,-0.054494,0.025006,-0.002044
"2018-06-07 01:17:17.391 +0000",1528334237.390583,0.499165,-0.097831,-0.119348,0.476403,0.097675,-0.873784,0.000000,0.000000,0.000000,-1,0.144051,-0.470031,-0.456922,-0.005456,0.126019,-0.048274
"2018-06-07 01:17:17.401 +0000",1528334237.400657,0.493623,-0.098793,-0.124730,0.471509,0.098632,-0.876328,0.000000,0.000000,0.000000,-1,0.179293,-0.498172,-0.529153,0.036426,0.110856,-0.052154
"2018-06-07 01:17:17.411 +0000",1528334237.410731,0.488529,-0.099745,-0.131045,0.466995,0.099580,-0.878634,0.000000,0.000000,0.000000,-1,0.219827,-0.421936,-0.619378,0.030579,0.081435,-0.020169
"2018-06-07 01:17:17.421 +0000",1528334237.420805,0.484018,-0.100898,-0.138664,0.462973,0.100727,-0.880630,0.000000,0.000000,0.000000,-1,0.265973,-0.360863,-0.754837,0.006174,0.063580,-0.001847
"2018-06-07 01:17:17.431 +0000",1528334237.430879,0.479570,-0.101685,-0.147221,0.459014,0.101509,-0.882610,0.000000,0.000000,0.000000,-1,0.344800,-0.352927,-0.762524,-0.012877,0.014579,-0.004597
"2018-06-07 01:17:17.441 +0000",1528334237.440953,0.475596,-0.100733,-0.151774,0.455547,0.100562,-0.884513,0.000000,0.000000,0.000000,-1,0.229260,-0.363231,-0.213711,-0.076778,-0.246207,0.025794
"2018-06-07 01:17:17.451 +0000",1528334237.451027,0.470893,-0.101453,-0.153330,0.451349,0.101279,-0.886581,0.000000,0.000000,0.000000,-1,-0.032412,-0.446410,-0.185387,-0.125925,-0.493354,0.044357
"2018-06-07 01:17:17.461 +0000",1528334237.461101,0.466477,-0.102117,-0.155097,0.447399,0.101939,-0.888505,0.000000,0.000000,0.000000,-1,0.051561,-0.415452,-0.182262,0.010181,-0.317882,0.018586
"2018-06-07 01:17:17.471 +0000",1528334237.471175,0.462067,-0.101238,-0.157563,0.443517,0.101065,-0.890549,0.000000,0.000000,0.000000,-1,0.228027,-0.413857,-0.183737,0.058940,-0.031317,-0.018722
"2018-06-07 01:17:17.481 +0000",1528334237.481250,0.458327,-0.099715,-0.160756,0.440250,0.099550,-0.892339,0.000000,0.000000,0.000000,-1,0.277622,-0.291679,-0.228672,0.047085,0.129485,0.000279
"2018-06-07 01:17:17.491 +0000",1528334237.491324,0.457618,-0.098687,-0.163921,0.439662,0.098527,-0.892742,0.000000,0.000000,0.000000,-1,0.210087,0.056136,-0.230733,0.031148,0.166991,0.069286
"2018-06-07 01:17:17.501 +0000",1528334237.501398,0.460109,-0.098200,-0.166230,0.441906,0.098042,-0.891687,0.000000,0.000000,0.000000,-1,0.116902,0.313574,-0.164156,0.005558,0.123363,0.059076
"2018-06-07 01:17:17.511 +0000",1528334237.511472,0.462903,-0.098572,-0.167242,0.444380,0.098412,-0.890416,0.000000,0.000000,0.000000,-1,-0.028607,0.270027,-0.085427,-0.024336,0.018211,-0.007869
"2018-06-07 01:17:17.522 +0000",1528334237.521546,0.465053,-0.099874,-0.166981,0.446235,0.099708,-0.889343,0.000000,0.000000,0.000000,-1,-0.151936,0.176085,-0.016577,-0.066245,-0.095664,-0.008453
"2018-06-07 01:17:17.532 +0000",1528334237.531620,0.466586,-0.101342,-0.165940,0.447531,0.101169,-0.888526,0.000000,0.000000,0.000000,-1,-0.183807,0.113195,0.038171,-0.084967,-0.183322,-0.004509
"2018-06-07 01:17:17.542 +0000",1528334237.541694,0.467093,-0.102494,-0.164835,0.447929,0.102315,-0.888195,0.000000,0.000000,0.000000,-1,-0.120731,0.022239,0.042064,-0.087989,-0.176213,-0.020237
"2018-06-07 01:17:17.552 +0000",1528334237.551768,0.466697,-0.102239,-0.164327,0.447589,0.102061,-0.888395,0.000000,0.000000,0.000000,-1,0.032505,-0.070756,0.068334,-0.007251,-0.213924,-0.044237
"2018-06-07 01:17:17.562 +0000",1528334237.561842,0.465401,-0.101455,-0.163751,0.446473,0.101281,-0.889046,0.000000,0.000000,0.000000,-1,0.034575,-0.149847,0.082083,0.040450,-0.171212,-0.014976
"2018-06-07 01:17:17.572 +0000",1528334237.571916,0.464173,-0.101408,-0.162860,0.445383,0.101235,-0.889598,0.000000,0.000000,0.000000,-1,-0.059994,-0.111690,0.082410,0.053686,-0.011818,0.042262
"2018-06-07 01:17:17.582 +0000",1528334237.581991,0.463590,-0.102318,-0.161643,0.444823,0.102139,-0.889774,0.000000,0.000000,0.000000,-1,-0.156429,-0.026180,0.046308,0.018006,0.130084,0.037373
"2018-06-07 01:17:17.592 +0000",1528334237.592065,0.465816,-0.103821,-0.161286,0.446734,0.103634,-0.888644,0.000000,0.000000,0.000000,-1,-0.140178,0.271785,-0.055049,-0.071566,0.307010,0.053698
"2018-06-07 01:17:17.602 +0000",1528334237.602139,0.468744,-0.104876,-0.161107,0.449284,0.104684,-0.887234,0.000000,0.000000,0.000000,-1,-0.090017,0.280572,-0.022869,-0.000401,0.167166,-0.015491
"2018-06-07 01:17:17.612 +0000",1528334237.612213,0.471071,-0.105745,-0.160753,0.451305,0.105548,-0.886105,0.000000,0.000000,0.000000,-1,-0.092175,0.211340,-0.006931,-0.016506,0.068325,-0.025288
"2018-06-07 01:17:17.622 +0000",1528334237.622287,0.472674,-0.106464,-0.160337,0.452691,0.106263,-0.885312,0.000000,0.000000,0.000000,-1,-0.084892,0.130045,0.012178,-0.034768,0.066924,-0.035586
"2018-06-07 01:17:17.632 +0000",1528334237.632361,0.473266,-0.107464,-0.159918,0.453166,0.107258,-0.884949,0.000000,0.000000,0.000000,-1,-0.113945,0.034603,-0.022454,-0.017513,-0.004520,-0.038223
"2018-06-07 01:17:17.642 +0000",1528334237.642435,0.472847,-0.109047,-0.159813,0.452718,0.108831,-0.884986,0.000000,0.000000,0.000000,-1,-0.155477,-0.070690,-0.072145,0.007182,0.039210,-0.030678
"2018-06-07 01:17:17.653 +0000",1528334237.652509,0.471398,-0.111066,-0.159672,0.451334,0.110837,-0.885444,0.000000,0.000000,0.000000,-1,-0.191070,-0.167379,-0.075571,0.037008,0.041949,-0.047997
"2018-06-07 01:17:17.663 +0000",1528334237.662583,0.468705,-0.113185,-0.159170,0.448840,0.112944,-0.886445,0.000000,0.000000,0.000000,-1,-0.216363,-0.319066,-0.045837,0.067608,-0.047407,-0.072936
"2018-06-07 01:17:17.673 +0000",1528334237.672657,0.464724,-0.115391,-0.158366,0.445195,0.115135,-0.888000,0.000000,0.000000,0.000000,-1,-0.232210,-0.411421,-0.022405,0.058970,-0.081810,-0.061524
"2018-06-07 01:17:17.683 +0000",1528334237.682731,0.461236,-0.117357,-0.157472,0.441994,0.117088,-0.889343,0.000000,0.000000,0.000000,-1,-0.207217,-0.334585,-0.003953,0.014809,-0.053367,0.013076
"2018-06-07 01:17:17.693 +0000",1528334237.692805,0.458630,-0.119240,-0.156624,0.439576,0.118958,-0.890293,0.000000,0.000000,0.000000,-1,-0.206188,-0.244530,-0.012298,-0.018998,-0.000443,0.048267
"2018-06-07 01:17:17.703 +0000",1528334237.702880,0.457598,-0.120921,-0.155889,0.438568,0.120626,-0.890565,0.000000,0.000000,0.000000,-1,-0.162301,-0.052322,-0.006461,-0.034638,0.016962,0.062943
"2018-06-07 01:17:17.713 +0000",1528334237.712954,0.458594,-0.122067,-0.155468,0.439394,0.121764,-0.890003,0.000000,0.000000,0.000000,-1,-0.106770,0.132279,-0.011430,-0.024614,0.001436,0.062061
"2018-06-07 01:17:17.723 +0000",1528334237.723028,0.461548,-0.122798,-0.155283,0.441981,0.122490,-0.888621,0.000000,0.000000,0.000000,-1,-0.038658,0.349852,-0.017407,-0.015162,-0.020561,0.059474
"2018-06-07 01:17:17.733 +0000",1528334237.733102,0.465296,-0.122740,-0.155485,0.445311,0.122433,-0.886965,0.000000,0.000000,0.000000,-1,0.040001,0.359892,-0.003574,0.013230,-0.017879,0.009233
"2018-06-07 01:17:17.743 +0000",1528334237.743176,0.468990,-0.122290,-0.155431,0.448610,0.121986,-0.885363,0.000000,0.000000,0.000000,-1,-0.002121,0.352027,0.011558,0.013472,-0.085395,0.008898
"2018-06-07 01:17:17.753 +0000",1528334237.753250,0.472443,-0.121859,-0.155118,0.451688,0.121558,-0.883855,0.000000,0.000000,0.000000,-1,-0.057735,0.312362,0.009419,-0.010755,-0.047400,0.015752
"2018-06-07 01:17:17.763 +0000",1528334237.763324,0.475379,-0.122021,-0.154734,0.454272,0.121719,-0.882508,0.000000,0.000000,0.000000,-1,-0.075512,0.273913,0.003970,-0.029742,0.048936,-0.023041
"2018-06-07 01:17:17.773 +0000",1528334237.773398,0.478290,-0.122541,-0.154212,0.456810,0.122235,-0.881125,0.000000,0.000000,0.000000,-1,-0.064204,0.296876,0.033053,-0.019051,0.053989,-0.025476
"2018-06-07 01:17:17.783 +0000",1528334237.783472,0.481299,-0.122856,-0.153391,0.459441,0.122547,-0.879712,0.000000,0.000000,0.000000,-1,-0.039360,0.315418,0.078227,-0.009536,-0.012165,-0.006381
"2018-06-07 01:17:17.794 +0000",1528334237.793546,0.483620,-0.122953,-0.152445,0.461476,0.122644,-0.878633,0.000000,0.000000,0.000000,-1,-0.053994,0.191304,0.084354,-0.029927,-0.003107,-0.017088
"2018-06-07 01:17:17.804 +0000",1528334237.803621,0.484147,-0.123514,-0.151144,0.461908,0.123200,-0.878329,0.000000,0.000000,0.000000,-1,-0.139949,0.003343,0.085079,-0.031289,-0.018708,-0.038892
"2018-06-07 01:17:17.814 +0000",1528334237.813695,0.483805,-0.124473,-0.149737,0.461551,0.124152,-0.878382,0.000000,0.000000,0.000000,-1,-0.160757,-0.057015,0.066665,-0.049198,0.072549,-0.047796
"2018-06-07 01:17:17.824 +0000",1528334237.823769,0.483407,-0.124588,-0.148584,0.461196,0.124266,-0.878553,0.000000,0.000000,0.000000,-1,-0.110319,-0.053568,0.063333,-0.022887,0.096727,-0.065768
"2018-06-07 01:17:17.834 +0000",1528334237.833843,0.483366,-0.124447,-0.147437,0.461167,0.124126,-0.878587,0.000000,0.000000,0.000000,-1,-0.065509,0.014461,0.101076,-0.011109,0.003880,-0.039702
"2018-06-07 01:17:17.844 +0000",1528334237.843917,0.484207,-0.124773,-0.146203,0.461887,0.124449,-0.878163,0.000000,0.000000,0.000000,-1,-0.054142,0.130814,0.111069,-0.032887,-0.044646,0.023885
"2018-06-07 01:17:17.854 +0000",1528334237.853991,0.485839,-0.125329,-0.144883,0.463287,0.125001,-0.877347,0.000000,0.000000,0.000000,-1,-0.087814,0.193292,0.111328,-0.031632,-0.011079,0.035214
"2018-06-07 01:17:17.864 +0000",1528334237.864065,0.488384,-0.125488,-0.143307,0.465509,0.125159,-0.876148,0.000000,0.000000,0.000000,-1,-0.099596,0.249151,0.134106,-0.021738,-0.051230,0.035999
"2018-06-07 01:17:17.874 +0000",1528334237.874139,0.490160,-0.125817,-0.141650,0.467045,0.125485,-0.875283,0.000000,0.000000,0.000000,-1,-0.115233,0.161304,0.129584,-0.022740,-0.052334,0.000146
"2018-06-07 01:17:17.884 +0000",1528334237.884213,0.490930,-0.125967,-0.139895,0.467710,0.125634,-0.874906,0.000000,0.000000,0.000000,-1,-0.108969,0.082220,0.144398,-0.012464,-0.050592,-0.020449
"2018-06-07 01:17:17.894 +0000",1528334237.894287,0.491378,-0.126520,-0.138292,0.468069,0.126182,-0.874635,0.000000,0.000000,0.000000,-1,-0.074274,0.081237,0.140013,-0.011603,-0.015816,-0.022108
"2018-06-07 01:17:17.904 +0000",1528334237.904361,0.492122,-0.126970,-0.137012,0.468693,0.126629,-0.874237,0.000000,0.000000,0.000000,-1,-0.037368,0.112172,0.117430,-0.018193,0.020481,-0.025833
"2018-06-07 01:17:17.914 +0000",1528334237.914435,0.493439,-0.126709,-0.135896,0.469859,0.126370,-0.873648,0.000000,0.000000,0.000000,-1,-0.035253,0.157217,0.110027,-0.011913,0.015506,-0.010385
"2018-06-07 01:17:17.925 +0000",1528334237.924510,0.495015,-0.126343,-0.134678,0.471258,0.126007,-0.872947,0.000000,0.000000,0.000000,-1,-0.060473,0.151649,0.112220,0.002375,-0.015152,-0.000222
"2018-06-07 01:17:17.935 +0000",1528334237.934584,0.496034,-0.126432,-0.133281,0.472142,0.126096,-0.872456,0.000000,0.000000,0.000000,-1,-0.084586,0.080214,0.115294,0.002360,-0.030103,-0.009990
"2018-06-07 01:17:17.945 +0000",1528334237.944658,0.496322,-0.126549,-0.131870,0.472386,0.126211,-0.872308,0.000000,0.000000,0.000000,-1,-0.115884,-0.003231,0.097913,-0.014180,0.032923,-0.017265
"2018-06-07 01:17:17.955 +0000",1528334237.954732,0.496018,-0.126958,-0.130208,0.472096,0.126617,-0.872405,0.000000,0.000000,0.000000,-1,-0.155910,-0.031960,0.116207,-0.003453,0.034119,-0.024232
"2018-06-07 01:17:17.965 +0000",1528334237.964806,0.496291,-0.127314,-0.128009,0.472313,0.126970,-0.872237,0.000000,0.000000,0.000000,-1,-0.170013,0.039147,0.165926,0.000740,-0.031603,-0.001512
"2018-06-07 01:17:17.975 +0000",1528334237.974880,0.497443,-0.127681,-0.125576,0.473295,0.127334,-0.871651,0.000000,0.000000,0.000000,-1,-0.151383,0.119227,0.191931,-0.026274,-0.030456,0.013588
"2018-06-07 01:17:17.985 +0000",1528334237.984954,0.499184,-0.127828,-0.123140,0.474803,0.127481,-0.870809,0.000000,0.000000,0.000000,-1,-0.108616,0.187282,0.222150,-0.025875,-0.021798,0.019002
"2018-06-07 01:17:17.995 +0000",1528334237.995028,0.501658,-0.127815,-0.120427,0.476956,0.127468,-0.869634,0.000000,0.000000,0.000000,-1,-0.128798,0.232134,0.245990,-0.022367,-0.062801,0.051183
"2018-06-07 01:17:18.005 +0000",1528334238.005102,0.504252,-0.127956,-0.117286,0.479202,0.127607,-0.868378,0.000000,0.000000,0.000000,-1,-0.181456,0.224222,0.265450,-0.003174,-0.080289,0.051804
"2018-06-07 01:17:18.015 +0000",1528334238.015176,0.506839,-0.128222,-0.113958,0.481430,0.127871,-0.867105,0.000000,0.000000,0.000000,-1,-0.204544,0.212087,0.264391,0.002060,-0.029254,0.033152
"2018-06-07 01:17:18.025 +0000",1528334238.025250,0.508712,-0.128968,-0.110674,0.483008,0.128610,-0.866118,0.000000,0.000000,0.000000,-1,-0.208663,0.152810,0.261002,0.012140,0.011740,-0.017015
"2018-06-07 01:17:18.035 +0000",1528334238.035325,0.510517,-0.129878,-0.107372,0.484512,0.129514,-0.865143,0.000000,0.000000,0.000000,-1,-0.222183,0.158338,0.242763,0.015518,-0.011319,-0.020584
"2018-06-07 01:17:18.045 +0000",1528334238.045399,0.512229,-0.130433,-0.104493,0.485957,0.130064,-0.864249,0.000000,0.000000,0.000000,-1,-0.203937,0.131143,0.195313,0.005833,0.017550,-0.023980
"2018-06-07 01:17:18.055 +0000",1528334238.055473,0.513085,-0.130964,-0.102261,0.486663,0.130590,-0.863773,0.000000,0.000000,0.000000,-1,-0.162535,0.054611,0.147665,-0.000152,0.086070,-0.047498
"2018-06-07 01:17:18.066 +0000",1528334238.065547,0.513113,-0.131356,-0.100675,0.486663,0.130979,-0.863714,0.000000,0.000000,0.000000,-1,-0.120090,0.002244,0.097936,0.017228,0.114001,-0.073771
"2018-06-07 01:17:18.076 +0000",1528334238.075621,0.513116,-0.131665,-0.099394,0.486645,0.131285,-0.863677,0.000000,0.000000,0.000000,-1,-0.126146,-0.013015,0.067787,0.012470,0.079760,-0.034897
"2018-06-07 01:17:18.086 +0000",1528334238.085695,0.513085,-0.132201,-0.097967,0.486584,0.131816,-0.863631,0.000000,0.000000,0.000000,-1,-0.177628,-0.040625,0.073203,0.010212,0.023717,-0.020265
"2018-06-07 01:17:18.096 +0000",1528334238.095769,0.512850,-0.133184,-0.096195,0.486317,0.132791,-0.863632,0.000000,0.000000,0.000000,-1,-0.184121,-0.057222,0.100061,-0.024921,0.001380,-0.012283
"2018-06-07 01:17:18.106 +0000",1528334238.105843,0.512473,-0.134037,-0.094536,0.485935,0.133636,-0.863717,0.000000,0.000000,0.000000,-1,-0.139004,-0.058221,0.106409,-0.056751,0.045274,-0.024513
"2018-06-07 01:17:18.116 +0000",1528334238.115917,0.512330,-0.134270,-0.092829,0.485797,0.133867,-0.863759,0.000000,0.000000,0.000000,-1,-0.109854,-0.028627,0.136546,-0.032870,0.006666,-0.016002
"2018-06-07 01:17:18.126 +0000",1528334238.125991,0.512578,-0.134549,-0.090838,0.485993,0.134143,-0.863605,0.000000,0.000000,0.000000,-1,-0.118576,0.010715,0.173252,-0.015290,-0.019488,0.008472
"2018-06-07 01:17:18.136 +0000",1528334238.136065,0.513282,-0.135095,-0.088519,0.486565,0.134684,-0.863199,0.000000,0.000000,0.000000,-1,-0.117760,0.064408,0.197071,-0.002022,-0.035456,0.015696
"2018-06-07 01:17:18.146 +0000",1528334238.146139,0.514233,-0.135792,-0.086285,0.487339,0.135375,-0.862654,0.000000,0.000000,0.000000,-1,-0.122956,0.084194,0.187459,0.014492,-0.020430,0.016692
"2018-06-07 01:17:18.156 +0000",1528334238.156214,0.515694,-0.136499,-0.084120,0.488551,0.136076,-0.861858,0.000000,0.000000,0.000000,-1,-0.127023,0.132583,0.163945,0.031773,-0.029783,0.034435
"2018-06-07 01:17:18.166 +0000",1528334238.166287,0.517079,-0.136941,-0.082184,0.489715,0.136513,-0.861128,0.000000,0.000000,0.000000,-1,-0.122603,0.103060,0.139110,0.016587,0.027702,0.010984
"2018-06-07 01:17:18.176 +0000",1528334238.176362,0.517950,-0.137239,-0.080750,0.490445,0.136809,-0.860666,0.000000,0.000000,0.000000,-1,-0.087639,0.081355,0.102394,0.003116,0.057085,-0.020331
"2018-06-07 01:17:18.186 +0000",1528334238.186436,0.518319,-0.137470,-0.079809,0.490746,0.137037,-0.860457,0.000000,0.000000,0.000000,-1,-0.034892,0.048678,0.076363,-0.010400,0.046434,-0.032960
"2018-06-07 01:17:18.197 +0000",1528334238.196510,0.518366,-0.137151,-0.079345,0.490809,0.136722,-0.860472,0.000000,0.000000,0.000000,-1,0.018872,0.017083,0.054635,-0.031549,0.068921,-0.049471
"2018-06-07 01:17:18.207 +0000",1528334238.206583,0.518283,-0.136388,-0.079251,0.490788,0.135965,-0.860603,0.000000,0.000000,0.000000,-1,0.066291,-0.004668,0.037253,-0.036626,0.056952,-0.048668
"2018-06-07 01:17:18.217 +0000",1528334238.216658,0.518145,-0.135171,-0.079451,0.490751,0.134760,-0.860814,0.000000,0.000000,0.000000,-1,0.110385,-0.007852,0.040370,-0.029981,0.070471,-0.052073
"2018-06-07 01:17:18.227 +0000",1528334238.226732,0.518003,-0.133746,-0.079652,0.490723,0.133348,-0.861050,0.000000,0.000000,0.000000,-1,0.126142,-0.044052,0.044531,-0.022828,0.043288,-0.050281
"2018-06-07 01:17:18.237 +0000",1528334238.236805,0.517638,-0.132156,-0.080119,0.490513,0.131772,-0.861412,0.000000,0.000000,0.000000,-1,0.156768,-0.052663,0.023998,-0.039570,0.046756,-0.047295
"2018-06-07 01:17:18.247 +0000",1528334238.246880,0.517279,-0.130843,-0.080805,0.490290,0.130470,-0.861738,0.000000,0.000000,0.000000,-1,0.166287,-0.036125,0.013268,-0.024225,0.072319,-0.022814
"2018-06-07 01:17:18.257 +0000",1528334238.256954,0.517150,-0.129400,-0.081394,0.490271,0.129039,-0.861964,0.000000,0.000000,0.000000,-1,0.188048,0.014297,0.045634,-0.021368,0.036809,-0.028646
"2018-06-07 01:17:18.267 +0000",1528334238.267028,0.517335,-0.127592,-0.081909,0.490545,0.127246,-0.862074,0.000000,0.000000,0.000000,-1,0.202587,0.031821,0.065014,-0.022039,-0.032016,-0.000932
"2018-06-07 01:17:18.277 +0000",1528334238.277102,0.516690,-0.126011,-0.082324,0.490088,0.125678,-0.862564,0.000000,0.000000,0.000000,-1,0.188002,-0.049431,0.059433,-0.047445,0.034936,-0.009186
"2018-06-07 01:17:18.287 +0000",1528334238.287177,0.515103,-0.124374,-0.082598,0.488819,0.124053,-0.863519,0.000000,0.000000,0.000000,-1,0.177420,-0.154945,0.082814,-0.037037,0.085343,-0.056266
"2018-06-07 01:17:18.297 +0000",1528334238.297251,0.512464,-0.122850,-0.082689,0.486630,0.122541,-0.864970,0.000000,0.000000,0.000000,-1,0.158705,-0.275710,0.072825,-0.032514,0.076770,-0.082876
"2018-06-07 01:17:18.307 +0000",1528334238.307324,0.508260,-0.121729,-0.083267,0.483057,0.121428,-0.867127,0.000000,0.000000,0.000000,-1,0.133214,-0.420343,-0.009287,-0.022760,0.138291,-0.093993
"2018-06-07 01:17:18.317 +0000",1528334238.317399,0.503580,-0.121135,-0.084486,0.479027,0.120839,-0.869442,0.000000,0.000000,0.000000,-1,0.121195,-0.436532,-0.083526,0.011146,0.161723,-0.062581
"2018-06-07 01:17:18.327 +0000",1528334238.327473,0.499599,-0.120714,-0.085988,0.475587,0.120421,-0.871386,0.000000,0.000000,0.000000,-1,0.131742,-0.344219,-0.100492,0.046981,0.072435,-0.025129
"2018-06-07 01:17:18.338 +0000",1528334238.337547,0.496636,-0.120003,-0.087603,0.473044,0.119715,-0.872866,0.000000,0.000000,0.000000,-1,0.152642,-0.250860,-0.098117,0.060876,-0.018808,0.037707
"2018-06-07 01:17:18.348 +0000",1528334238.347620,0.494517,-0.119073,-0.088380,0.471246,0.118791,-0.873965,0.000000,0.000000,0.000000,-1,0.086581,-0.185656,0.016243,0.046638,-0.073549,0.089571
"2018-06-07 01:17:18.358 +0000",1528334238.357695,0.493866,-0.118185,-0.088076,0.470727,0.117910,-0.874364,0.000000,0.000000,0.000000,-1,0.089044,-0.013585,0.084503,-0.035271,-0.183569,0.148427
"2018-06-07 01:17:18.368 +0000",1528334238.367769,0.494635,-0.117124,-0.087950,0.471458,0.116856,-0.874111,0.000000,0.000000,0.000000,-1,0.115329,0.112812,0.065449,-0.073569,-0.113881,0.163204
"2018-06-07 01:17:18.378 +0000",1528334238.377842,0.496081,-0.116101,-0.088542,0.472778,0.115840,-0.873533,0.000000,0.000000,0.000000,-1,0.144243,0.180193,-0.015094,-0.055129,0.001988,0.108137
"2018-06-07 01:17:18.388 +0000",1528334238.387918,0.497952,-0.115470,-0.090028,0.474446,0.115214,-0.872711,0.000000,0.000000,0.000000,-1,0.159534,0.232177,-0.097803,-0.017095,0.114675,0.039703
"2018-06-07 01:17:18.398 +0000",1528334238.397992,0.500695,-0.115140,-0.091799,0.476856,0.114886,-0.871440,0.000000,0.000000,0.000000,-1,0.145940,0.322237,-0.116871,0.022686,0.122160,-0.003011
"2018-06-07 01:17:18.408 +0000",1528334238.408066,0.504549,-0.114739,-0.093668,0.480233,0.114488,-0.869636,0.000000,0.000000,0.000000,-1,0.142854,0.416721,-0.137027,0.030936,0.086226,-0.013543
"2018-06-07 01:17:18.418 +0000",1528334238.418139,0.508781,-0.114198,-0.095422,0.483940,0.113950,-0.867649,0.000000,0.000000,0.000000,-1,0.117533,0.414392,-0.121917,0.035805,0.068880,-0.022670
"2018-06-07 01:17:18.428 +0000",1528334238.428214,0.513013,-0.113743,-0.096770,0.487633,0.113498,-0.865639,0.000000,0.000000,0.000000,-1,0.083836,0.417546,-0.111074,0.030037,0.057004,-0.004173
"2018-06-07 01:17:18.438 +0000",1528334238.438288,0.516330,-0.113190,-0.098144,0.490532,0.112948,-0.864071,0.000000,0.000000,0.000000,-1,0.050322,0.291197,-0.108138,0.013328,0.081815,-0.016575
"2018-06-07 01:17:18.448 +0000",1528334238.448362,0.518556,-0.113170,-0.098813,0.492456,0.112929,-0.862979,0.000000,0.000000,0.000000,-1,-0.000362,0.234894,-0.066235,0.018821,0.000505,-0.012357
"2018-06-07 01:17:18.458 +0000",1528334238.458436,0.520822,-0.113281,-0.099119,0.494403,0.113039,-0.861850,0.000000,0.000000,0.000000,-1,0.023431,0.228171,-0.017905,-0.002795,-0.040911,0.014346
"2018-06-07 01:17:18.469 +0000",1528334238.468510,0.521965,-0.112670,-0.099874,0.495423,0.112432,-0.861344,0.000000,0.000000,0.000000,-1,0.159055,0.078148,-0.016501,0.000854,-0.117544,-0.031570
"2018-06-07 01:17:18.479 +0000",1528334238.478584,0.521048,-0.110559,-0.101227,0.494749,0.110334,-0.862002,0.000000,0.000000,0.000000,-1,0.308194,-0.122439,0.009465,0.018938,-0.177900,-0.051176
"2018-06-07 01:17:18.489 +0000",1528334238.488657,0.518270,-0.107350,-0.102882,0.492526,0.107144,-0.863676,0.000000,0.000000,0.000000,-1,0.366083,-0.305634,0.016329,0.009153,-0.155331,-0.017504
"2018-06-07 01:17:18.499 +0000",1528334238.498732,0.513902,-0.104428,-0.104337,0.488901,0.104239,-0.866088,0.000000,0.000000,0.000000,-1,0.309496,-0.433128,0.015012,-0.033883,-0.053473,-0.007417
"2018-06-07 01:17:18.509 +0000",1528334238.508807,0.509041,-0.102229,-0.105610,0.484795,0.102051,-0.868652,0.000000,0.000000,0.000000,-1,0.234082,-0.480452,-0.006466,-0.057122,0.054001,-0.002014
"2018-06-07 01:17:18.519 +0000",1528334238.518881,0.504015,-0.100773,-0.106581,0.480494,0.100602,-0.871207,0.000000,0.000000,0.000000,-1,0.183575,-0.490526,0.006529,-0.032160,0.097487,-0.024575
"2018-06-07 01:17:18.529 +0000",1528334238.528955,0.499995,-0.098829,-0.107095,0.477081,0.098669,-0.873302,0.000000,0.000000,0.000000,-1,0.208198,-0.363370,0.067078,0.013642,0.070063,-0.009923
"2018-06-07 01:17:18.539 +0000",1528334238.539029,0.497631,-0.096061,-0.107236,0.475144,0.095913,-0.874664,0.000000,0.000000,0.000000,-1,0.257968,-0.198833,0.130906,0.006423,0.064121,0.009490
"2018-06-07 01:17:18.549 +0000",1528334238.549103,0.496626,-0.092448,-0.107206,0.474427,0.092316,-0.875440,0.000000,0.000000,0.000000,-1,0.294344,-0.073731,0.165607,-0.004944,0.077270,0.011838
"2018-06-07 01:17:18.559 +0000",1528334238.559176,0.496577,-0.088442,-0.107190,0.474556,0.088327,-0.875781,0.000000,0.000000,0.000000,-1,0.307910,0.009732,0.166895,-0.002724,0.062247,0.010730
"2018-06-07 01:17:18.569 +0000",1528334238.569251,0.496657,-0.084276,-0.106833,0.474798,0.084176,-0.876059,0.000000,0.000000,0.000000,-1,0.306424,-0.017969,0.227053,0.016123,-0.034814,0.003256
"2018-06-07 01:17:18.579 +0000",1528334238.579325,0.496242,-0.080125,-0.105618,0.474597,0.080039,-0.876556,0.000000,0.000000,0.000000,-1,0.295234,-0.051325,0.320563,0.026288,-0.146171,0.012389
"2018-06-07 01:17:18.589 +0000",1528334238.589399,0.495465,-0.076034,-0.103989,0.474066,0.075961,-0.877205,0.000000,0.000000,0.000000,-1,0.278526,-0.100743,0.314004,-0.003577,-0.188647,0.032326
"2018-06-07 01:17:18.599 +0000",1528334238.599473,0.497568,-0.072243,-0.107802,0.476045,0.072180,-0.876453,0.000000,0.000000,0.000000,-1,0.675817,0.462951,-0.337107,-0.077943,-0.044608,0.075717
"2018-06-07 01:17:18.610 +0000",1528334238.609547,0.502411,-0.068380,-0.114742,0.480414,0.068327,-0.874375,0.000000,0.000000,0.000000,-1,0.627756,0.462957,-0.370342,0.011117,-0.102369,0.064667
"2018-06-07 01:17:18.620 +0000",1528334238.619622,0.503523,-0.066294,-0.117548,0.481453,0.066245,-0.873963,0.000000,0.000000,0.000000,-1,0.215189,0.033526,-0.071617,0.111991,-0.311805,-0.028365
"2018-06-07 01:17:18.630 +0000",1528334238.629695,0.503126,-0.066021,-0.117207,0.481115,0.065973,-0.874170,0.000000,0.000000,0.000000,-1,-0.044170,-0.038022,0.064300,0.039286,-0.225473,0.031275
"2018-06-07 01:17:18.640 +0000",1528334238.639770,0.503305,-0.066474,-0.116027,0.481258,0.066425,-0.874058,0.000000,0.000000,0.000000,-1,-0.101093,0.027609,0.082907,-0.023998,-0.087177,0.047764
"2018-06-07 01:17:18.650 +0000",1528334238.649844,0.504033,-0.066621,-0.114847,0.481889,0.066572,-0.873699,0.000000,0.000000,0.000000,-1,-0.056091,0.077070,0.098007,-0.013673,-0.007566,0.007106
"2018-06-07 01:17:18.660 +0000",1528334238.659918,0.505176,-0.066293,-0.113836,0.482898,0.066245,-0.873166,0.000000,0.000000,0.000000,-1,-0.012070,0.113387,0.105541,-0.009036,0.035608,-0.008837
"2018-06-07 01:17:18.670 +0000",1528334238.669991,0.506551,-0.065824,-0.112810,0.484113,0.065776,-0.872528,0.000000,0.000000,0.000000,-1,-0.010022,0.134232,0.109900,-0.000974,0.032704,-0.011230
"2018-06-07 01:17:18.680 +0000",1528334238.680066,0.507962,-0.065518,-0.111934,0.485353,0.065471,-0.871862,0.000000,0.000000,0.000000,-1,-0.018190,0.129945,0.079788,-0.004442,0.030262,-0.023432
"2018-06-07 01:17:18.690 +0000",1528334238.690140,0.509234,-0.065431,-0.111316,0.486465,0.065384,-0.871249,0.000000,0.000000,0.000000,-1,-0.022173,0.117971,0.052871,-0.001678,0.033615,-0.031858
"2018-06-07 01:17:18.700 +0000",1528334238.700213,0.510666,-0.065387,-0.110990,0.487714,0.065341,-0.870554,0.000000,0.000000,0.000000,-1,-0.007286,0.152160,0.024970,0.015491,0.019300,-0.007910
"2018-06-07 01:17:18.710 +0000",1528334238.710288,0.512028,-0.065195,-0.110822,0.488905,0.065149,-0.869900,0.000000,0.000000,0.000000,-1,0.009559,0.119279,0.023760,0.004030,0.025427,-0.001103
"2018-06-07 01:17:18.720 +0000",1528334238.720362,0.512686,-0.064988,-0.110584,0.489484,0.064942,-0.869589,0.000000,0.000000,0.000000,-1,0.005342,0.051161,0.034328,-0.024778,0.028426,-0.021707
"2018-06-07 01:17:18.730 +0000",1528334238.730437,0.512966,-0.064681,-0.110112,0.489737,0.064635,-0.869470,0.000000,0.000000,0.000000,-1,0.004078,0.023583,0.065444,-0.021811,0.004029,-0.022467
"2018-06-07 01:17:18.741 +0000",1528334238.740510,0.513925,-0.064237,-0.109371,0.490585,0.064193,-0.869025,0.000000,0.000000,0.000000,-1,0.001677,0.112377,0.093675,-0.028640,-0.010589,0.012915
"2018-06-07 01:17:18.751 +0000",1528334238.750585,0.515491,-0.063714,-0.108276,0.491961,0.063671,-0.868285,0.000000,0.000000,0.000000,-1,-0.001837,0.162693,0.134704,-0.023989,-0.022197,0.024321
"2018-06-07 01:17:18.761 +0000",1528334238.760659,0.517111,-0.063055,-0.107056,0.493388,0.063013,-0.867522,0.000000,0.000000,0.000000,-1,0.006532,0.155010,0.140041,-0.013225,-0.034922,0.018233
"2018-06-07 01:17:18.771 +0000",1528334238.770732,0.518326,-0.062440,-0.105956,0.494460,0.062400,-0.866956,0.000000,0.000000,0.000000,-1,0.007744,0.107873,0.124842,0.005921,-0.043402,0.004499
"2018-06-07 01:17:18.781 +0000",1528334238.780807,0.519329,-0.062058,-0.105120,0.495342,0.062018,-0.866480,0.000000,0.000000,0.000000,-1,-0.001411,0.098125,0.087187,0.013753,-0.029594,0.006144
"2018-06-07 01:17:18.791 +0000",1528334238.790881,0.520698,-0.062011,-0.104526,0.496529,0.061972,-0.865804,0.000000,0.000000,0.000000,-1,-0.014861,0.143231,0.055079,0.019249,-0.010016,0.018254
"2018-06-07 01:17:18.801 +0000",1528334238.800955,0.521829,-0.062016,-0.104047,0.497507,0.061976,-0.865242,0.000000,0.000000,0.000000,-1,-0.007459,0.125705,0.050709,0.021398,0.010839,-0.011010
"2018-06-07 01:17:18.811 +0000",1528334238.811028,0.522783,-0.061704,-0.103626,0.498342,0.061664,-0.864783,0.000000,0.000000,0.000000,-1,0.013527,0.104884,0.055978,0.006739,0.023785,-0.025826
"2018-06-07 01:17:18.821 +0000",1528334238.821103,0.523534,-0.061268,-0.103329,0.499006,0.061230,-0.864432,0.000000,0.000000,0.000000,-1,0.018920,0.087402,0.039781,-0.005063,0.016086,-0.019373
"2018-06-07 01:17:18.831 +0000",1528334238.831177,0.524249,-0.060794,-0.103154,0.499638,0.060757,-0.864100,0.000000,0.000000,0.000000,-1,0.026330,0.069881,0.034334,-0.006824,0.021595,-0.016363
"2018-06-07 01:17:18.841 +0000",1528334238.841252,0.524633,-0.060227,-0.103003,0.499987,0.060191,-0.863937,0.000000,0.000000,0.000000,-1,0.028490,0.034773,0.031000,0.009046,0.008779,-0.029236
"2018-06-07 01:17:18.851 +0000",1528334238.851326,0.524825,-0.059596,-0.102979,0.500172,0.059561,-0.863874,0.000000,0.000000,0.000000,-1,0.036978,0.015073,0.022318,0.010235,0.012247,-0.022494
"2018-06-07 01:17:18.861 +0000",1528334238.861400,0.525022,-0.059015,-0.102954,0.500359,0.058980,-0.863805,0.000000,0.000000,0.000000,-1,0.035917,0.009572,0.024456,0.024360,0.000163,-0.005213
"2018-06-07 01:17:18.871 +0000",1528334238.871474,0.525120,-0.058519,-0.102881,0.500458,0.058485,-0.863782,0.000000,0.000000,0.000000,-1,0.036924,-0.005825,0.031939,0.029053,-0.021132,0.003217
"2018-06-07 01:17:18.882 +0000",1528334238.881547,0.525011,-0.058072,-0.102785,0.500377,0.058039,-0.863859,0.000000,0.000000,0.000000,-1,0.039034,-0.015699,0.031905,0.020405,-0.021036,0.009504
"2018-06-07 01:17:18.892 +0000",1528334238.891622,0.524929,-0.057682,-0.102666,0.500317,0.057650,-0.863919,0.000000,0.000000,0.000000,-1,0.035818,0.000731,0.038414,0.011233,-0.016390,0.020108
"2018-06-07 01:17:18.902 +0000",1528334238.901696,0.524833,-0.057294,-0.102515,0.500246,0.057263,-0.863986,0.000000,0.000000,0.000000,-1,0.032687,-0.003660,0.036257,0.006422,-0.010937,0.012790
"2018-06-07 01:17:18.912 +0000",1528334238.911770,0.524551,-0.057006,-0.102417,0.500011,0.056976,-0.864142,0.000000,0.000000,0.000000,-1,0.031729,-0.029972,0.027578,0.003987,0.005860,-0.000360
"2018-06-07 01:17:18.922 +0000",1528334238.921844,0.524126,-0.056698,-0.102374,0.499652,0.056668,-0.864370,0.000000,0.000000,0.000000,-1,0.027601,-0.037632,0.018960,0.009519,0.003482,-0.005656
"2018-06-07 01:17:18.932 +0000",1528334238.931918,0.523903,-0.056462,-0.102298,0.499466,0.056432,-0.864492,0.000000,0.000000,0.000000,-1,0.021263,-0.017899,0.021183,0.006943,-0.007863,0.006323
"2018-06-07 01:17:18.942 +0000",1528334238.941992,0.523794,-0.056160,-0.102181,0.499380,0.056130,-0.864562,0.000000,0.000000,0.000000,-1,0.022294,-0.023399,0.024391,0.005091,-0.009072,-0.002595
"2018-06-07 01:17:18.952 +0000",1528334238.952065,0.523636,-0.055715,-0.102099,0.499255,0.055687,-0.864662,0.000000,0.000000,0.000000,-1,0.026512,-0.032165,0.023281,0.001416,-0.008354,-0.012733
"2018-06-07 01:17:18.962 +0000",1528334238.962141,0.523419,-0.055316,-0.102018,0.499079,0.055288,-0.864790,0.000000,0.000000,0.000000,-1,0.021279,-0.034366,0.021135,-0.005442,-0.005819,-0.014849
"2018-06-07 01:17:18.972 +0000",1528334238.972215,0.523308,-0.055002,-0.101916,0.498992,0.054974,-0.864860,0.000000,0.000000,0.000000,-1,0.014977,-0.017908,0.019046,-0.009795,-0.004849,-0.013466
"2018-06-07 01:17:18.982 +0000",1528334238.982289,0.523346,-0.054762,-0.101780,0.499031,0.054734,-0.864853,0.000000,0.000000,0.000000,-1,0.011793,-0.000362,0.021256,-0.012596,-0.007539,-0.011460
"2018-06-07 01:17:18.992 +0000",1528334238.992362,0.523397,-0.054604,-0.101676,0.499080,0.054577,-0.864834,0.000000,0.000000,0.000000,-1,0.011813,0.004043,0.018041,-0.014201,-0.005199,-0.012287
"2018-06-07 01:17:19.002 +0000",1528334239.002437,0.523511,-0.054413,-0.101551,0.499183,0.054386,-0.864787,0.000000,0.000000,0.000000,-1,0.008653,0.013914,0.018077,-0.014305,-0.005009,-0.012334
"2018-06-07 01:17:19.013 +0000",1528334239.012511,0.523832,-0.054230,-0.101428,0.499466,0.054203,-0.864635,0.000000,0.000000,0.000000,-1,0.008632,0.027083,0.019191,-0.017563,-0.014668,-0.005757
"2018-06-07 01:17:19.023 +0000",1528334239.022584,0.524121,-0.054018,-0.101306,0.499721,0.053992,-0.864501,0.000000,0.000000,0.000000,-1,0.010726,0.024888,0.020256,-0.015850,-0.011878,-0.008470
"2018-06-07 01:17:19.033 +0000",1528334239.032659,0.524301,-0.053805,-0.101170,0.499883,0.053779,-0.864420,0.000000,0.000000,0.000000,-1,0.008631,0.019394,0.020245,-0.011846,-0.003639,-0.007665
"2018-06-07 01:17:19.043 +0000",1528334239.042733,0.524513,-0.053618,-0.101051,0.500071,0.053592,-0.864323,0.000000,0.000000,0.000000,-1,0.006530,0.028174,0.019199,-0.010218,0.003002,0.002736
"2018-06-07 01:17:19.053 +0000",1528334239.052807,0.524912,-0.053483,-0.100931,0.500420,0.053458,-0.864129,0.000000,0.000000,0.000000,-1,0.002338,0.052331,0.014977,-0.012047,0.003030,0.008020
"2018-06-07 01:17:19.063 +0000",1528334239.062881,0.525442,-0.053343,-0.100919,0.500881,0.053318,-0.863871,0.000000,0.000000,0.000000,-1,0.012938,0.063401,0.001005,-0.022854,0.022122,0.003855
"2018-06-07 01:17:19.073 +0000",1528334239.072956,0.525732,-0.053158,-0.101067,0.501137,0.053133,-0.863734,0.000000,0.000000,0.000000,-1,0.022458,0.028317,-0.003422,-0.011528,0.033919,-0.015737
"2018-06-07 01:17:19.083 +0000",1528334239.083030,0.525763,-0.052940,-0.101288,0.501170,0.052915,-0.863728,0.000000,0.000000,0.000000,-1,0.024659,0.010804,-0.014234,0.006399,0.002749,-0.013789
"2018-06-07 01:17:19.093 +0000",1528334239.093103,0.525890,-0.052662,-0.101453,0.501287,0.052638,-0.863677,0.000000,0.000000,0.000000,-1,0.028709,0.030503,0.003024,0.002848,-0.011699,0.008437
"2018-06-07 01:17:19.103 +0000",1528334239.103178,0.526220,-0.052190,-0.101456,0.501584,0.052166,-0.863533,0.000000,0.000000,0.000000,-1,0.037982,0.037021,0.025611,-0.003812,-0.019238,0.011895
"2018-06-07 01:17:19.113 +0000",1528334239.113252,0.526327,-0.051727,-0.101408,0.501689,0.051704,-0.863500,0.000000,0.000000,0.000000,-1,0.034839,0.011755,0.027696,0.000966,-0.035286,0.000372
"2018-06-07 01:17:19.123 +0000",1528334239.123326,0.526377,-0.051288,-0.101244,0.501743,0.051265,-0.863495,0.000000,0.000000,0.000000,-1,0.029490,0.010588,0.040612,0.003659,-0.050777,0.008637
"2018-06-07 01:17:19.133 +0000",1528334239.133399,0.526545,-0.050925,-0.100943,0.501897,0.050903,-0.863427,0.000000,0.000000,0.000000,-1,0.015768,0.020398,0.048202,-0.009832,-0.031418,0.014519
"2018-06-07 01:17:19.143 +0000",1528334239.143473,0.526922,-0.050712,-0.100475,0.502229,0.050691,-0.863247,0.000000,0.000000,0.000000,-1,0.003040,0.054344,0.060162,-0.009187,-0.033479,0.009639
"2018-06-07 01:17:19.154 +0000",1528334239.153547,0.527540,-0.050501,-0.099974,0.502767,0.050479,-0.862945,0.000000,0.000000,0.000000,-1,0.008277,0.068629,0.060191,-0.007757,-0.022220,0.010147
"2018-06-07 01:17:19.164 +0000",1528334239.163620,0.528244,-0.050268,-0.099646,0.503380,0.050247,-0.862602,0.000000,0.000000,0.000000,-1,0.005310,0.066524,0.036528,-0.014321,0.026841,0.004112
"2018-06-07 01:17:19.174 +0000",1528334239.173695,0.528683,-0.050023,-0.099465,0.503765,0.050002,-0.862391,0.000000,0.000000,0.000000,-1,0.010712,0.031474,0.021354,0.001652,0.034516,-0.015874
"2018-06-07 01:17:19.184 +0000",1528334239.183769,0.528737,-0.049751,-0.099434,0.503819,0.049730,-0.862375,0.000000,0.000000,0.000000,-1,0.018167,0.001896,0.011570,0.012890,0.020888,-0.030767
"2018-06-07 01:17:19.194 +0000",1528334239.193844,0.528740,-0.049367,-0.099432,0.503830,0.049347,-0.862391,0.000000,0.000000,0.000000,-1,0.021317,0.003003,0.011566,0.010696,0.004364,-0.021139
"2018-06-07 01:17:19.204 +0000",1528334239.203918,0.528927,-0.048916,-0.099396,0.504003,0.048896,-0.862315,0.000000,0.000000,0.000000,-1,0.019183,0.020552,0.013774,0.000010,-0.006385,-0.006856
"2018-06-07 01:17:19.214 +0000",1528334239.213992,0.529174,-0.048546,-0.099373,0.504225,0.048527,-0.862206,0.000000,0.000000,0.000000,-1,0.020227,0.027141,0.013790,-0.009932,-0.011341,-0.000495
"2018-06-07 01:17:19.224 +0000",1528334239.224066,0.529434,-0.048123,-0.099388,0.504460,0.048104,-0.862093,0.000000,0.000000,0.000000,-1,0.027594,0.029366,0.011629,-0.013142,-0.010308,0.002230
"2018-06-07 01:17:19.234 +0000",1528334239.234140,0.529734,-0.047741,-0.099440,0.504727,0.047723,-0.861958,0.000000,0.000000,0.000000,-1,0.026547,0.033759,0.010568,-0.012173,-0.009087,0.003849
"2018-06-07 01:17:19.244 +0000",1528334239.244214,0.530041,-0.047622,-0.099484,0.504995,0.047604,-0.861807,0.000000,0.000000,0.000000,-1,0.022351,0.037045,0.009512,-0.011083,-0.010693,0.003684
"2018-06-07 01:17:19.254 +0000",1528334239.254288,0.530373,-0.047548,-0.099502,0.505283,0.047530,-0.861643,0.000000,0.000000,0.000000,-1,0.021303,0.034847,0.009508,-0.012256,-0.009078,-0.002325
"2018-06-07 01:17:19.264 +0000",1528334239.264362,0.530656,-0.047453,-0.099563,0.505529,0.047435,-0.861504,0.000000,0.000000,0.000000,-1,0.019249,0.029375,0.004118,-0.014120,-0.006221,-0.009483
"2018-06-07 01:17:19.274 +0000",1528334239.274436,0.530966,-0.047317,-0.099658,0.505799,0.047300,-0.861352,0.000000,0.000000,0.000000,-1,0.018244,0.033790,-0.002320,-0.018693,-0.004575,-0.008719
"2018-06-07 01:17:19.285 +0000",1528334239.284510,0.531334,-0.047114,-0.099837,0.506121,0.047097,-0.861174,0.000000,0.000000,0.000000,-1,0.024580,0.040417,-0.007694,-0.023928,-0.004006,-0.007417
"2018-06-07 01:17:19.295 +0000",1528334239.294584,0.531641,-0.046872,-0.100143,0.506391,0.046855,-0.861029,0.000000,0.000000,0.000000,-1,0.035180,0.035007,-0.019566,-0.031065,-0.005274,-0.008554
"2018-06-07 01:17:19.305 +0000",1528334239.304659,0.531885,-0.046596,-0.100617,0.506608,0.046579,-0.860916,0.000000,0.000000,0.000000,-1,0.047880,0.029603,-0.031443,-0.034852,-0.006784,-0.009537
"2018-06-07 01:17:19.315 +0000",1528334239.314733,0.532136,-0.046256,-0.101245,0.506832,0.046240,-0.860803,0.000000,0.000000,0.000000,-1,0.061613,0.034077,-0.042218,-0.034740,-0.010366,-0.012153
"2018-06-07 01:17:19.325 +0000",1528334239.324807,0.532385,-0.045844,-0.102032,0.507056,0.045828,-0.860693,0.000000,0.000000,0.000000,-1,0.073225,0.034141,-0.049774,-0.036826,-0.007696,-0.014506
"2018-06-07 01:17:19.335 +0000",1528334239.334881,0.532647,-0.045381,-0.102898,0.507292,0.045366,-0.860578,0.000000,0.000000,0.000000,-1,0.082696,0.033079,-0.051950,-0.036772,-0.008287,-0.015185
"2018-06-07 01:17:19.345 +0000",1528334239.344954,0.532793,-0.044889,-0.103829,0.507429,0.044874,-0.860523,0.000000,0.000000,0.000000,-1,0.089021,0.026519,-0.054134,-0.031065,-0.003904,-0.017467
"2018-06-07 01:17:19.355 +0000",1528334239.355029,0.532967,-0.044373,-0.104654,0.507591,0.044359,-0.860454,0.000000,0.000000,0.000000,-1,0.081588,0.033044,-0.044418,-0.021476,-0.003145,-0.007267
"2018-06-07 01:17:19.365 +0000",1528334239.365103,0.533171,-0.043912,-0.105342,0.507776,0.043898,-0.860369,0.000000,0.000000,0.000000,-1,0.069933,0.035153,-0.031477,-0.006983,-0.003294,-0.004622
