timestamp,timeIntervalSince1970,attitude.roll,attitude.pitch,attitude.yaw,gravity.x,gravity.y,gravity.z,magneticField.x,magneticField.y,magneticField.z,magneticField.accuracy,rotationRate.x,rotationRate.y,rotationRate.z,userAcceleration.x,userAcceleration.y,userAcceleration.z
"2018-06-06 19:15:31.343 +0000",1528312531.343212,-0.049065,0.654406,0.029880,-0.038913,-0.608688,-0.792455,0.000000,0.000000,0.000000,-1,-0.353163,0.132410,0.055878,-0.116727,0.005248,-0.012065
"2018-06-06 19:15:31.434 +0000",1528312531.433874,-0.069577,0.616744,0.031191,-0.056713,-0.578382,-0.813792,0.000000,0.000000,0.000000,-1,-0.570190,0.162153,0.411424,0.046474,-0.009814,0.029857
"2018-06-06 19:15:31.525 +0000",1528312531.524536,-0.037942,0.498076,0.074028,-0.033324,-0.477736,-0.877871,0.000000,0.000000,0.000000,-1,-1.014809,0.387569,0.289399,-0.098558,0.053099,-0.100309
"2018-06-06 19:15:31.615 +0000",1528312531.615199,0.036754,0.429465,0.090124,0.033408,-0.416385,-0.908575,0.000000,0.000000,0.000000,-1,-0.937528,1.773121,0.039400,-0.011695,0.134814,0.063268
"2018-06-06 19:15:31.706 +0000",1528312531.705861,0.184672,0.344122,0.151910,0.172859,-0.337370,-0.925366,0.000000,0.000000,0.000000,-1,-0.928236,2.983333,0.458099,0.068856,0.188307,0.058514
"2018-06-06 19:15:31.797 +0000",1528312531.796525,0.182283,0.223535,0.240576,0.176765,-0.221678,-0.958965,0.000000,0.000000,0.000000,-1,-1.923862,0.383615,0.630298,-0.138419,0.109114,0.114146
"2018-06-06 19:15:31.887 +0000",1528312531.887187,0.275837,0.099149,0.199431,0.271015,-0.098987,-0.957472,0.000000,0.000000,0.000000,-1,-1.210548,1.441989,-1.022599,0.108562,-0.156125,0.238600
"2018-06-06 19:15:31.978 +0000",1528312531.977848,0.371653,-0.007480,0.175298,0.363146,0.007480,-0.931702,0.000000,0.000000,0.000000,-1,-0.577336,1.210204,-0.565423,0.091001,-0.246402,-0.118637
"2018-06-06 19:15:32.069 +0000",1528312532.068511,0.453112,-0.029369,0.205513,0.437577,0.029365,-0.898701,0.000000,0.000000,0.000000,-1,-0.269035,0.951869,1.035830,0.211303,-0.098671,0.003392
"2018-06-06 19:15:32.159 +0000",1528312532.159173,0.506310,-0.071613,0.291805,0.483711,0.071552,-0.872298,0.000000,0.000000,0.000000,-1,-0.660651,0.080075,0.028463,-0.061378,0.063183,-0.158402
"2018-06-06 19:15:32.250 +0000",1528312532.249835,0.479739,-0.098310,0.302495,0.459319,0.098152,-0.882832,0.000000,0.000000,0.000000,-1,-0.269142,-0.246750,-0.306821,0.103471,0.001000,-0.036983
"2018-06-06 19:15:32.340 +0000",1528312532.340498,0.467513,-0.117345,0.351076,0.447568,0.117076,-0.886553,0.000000,0.000000,0.000000,-1,0.158859,-0.159848,0.983226,0.244678,-0.173060,-0.157713
"2018-06-06 19:15:32.431 +0000",1528312532.431160,0.460981,-0.026268,0.392659,0.444674,0.026265,-0.895307,0.000000,0.000000,0.000000,-1,0.495342,0.566196,0.844734,0.048918,-0.049016,0.184553
"2018-06-06 19:15:32.522 +0000",1528312532.521822,0.515020,0.083252,0.463879,0.490846,-0.083156,-0.867269,0.000000,0.000000,0.000000,-1,0.660069,0.683890,1.947235,0.116988,-0.005101,0.105184
"2018-06-06 19:15:32.612 +0000",1528312532.612485,0.542438,0.195300,0.577664,0.506412,-0.194061,-0.840171,0.000000,0.000000,0.000000,-1,0.256103,0.964740,1.722016,0.523404,0.020569,0.006782
"2018-06-06 19:15:32.703 +0000",1528312532.703147,0.605869,0.251991,0.648839,0.551491,-0.249333,-0.796047,0.000000,0.000000,0.000000,-1,-0.077268,0.456345,0.744615,0.055732,0.043766,0.023265
"2018-06-06 19:15:32.794 +0000",1528312532.793810,0.613108,0.309857,0.718501,0.548010,-0.304922,-0.778914,0.000000,0.000000,0.000000,-1,0.342787,0.190526,1.061270,0.082423,0.007224,0.085982
"2018-06-06 19:15:32.884 +0000",1528312532.884472,0.624335,0.304119,0.775191,0.557733,-0.299452,-0.774120,0.000000,0.000000,0.000000,-1,-0.397121,0.221304,0.298271,0.118277,-0.276018,-0.039448
"2018-06-06 19:15:32.975 +0000",1528312532.975133,0.643636,0.317747,0.769590,0.570067,-0.312427,-0.759877,0.000000,0.000000,0.000000,-1,0.256042,-0.515520,-0.002246,-0.021331,-0.046216,-0.068782
"2018-06-06 19:15:33.066 +0000",1528312533.065796,0.567878,0.325231,0.777913,0.509649,-0.319527,-0.798849,0.000000,0.000000,0.000000,-1,-0.386653,-0.325038,-0.040019,-0.045827,0.036782,0.178259
"2018-06-06 19:15:33.156 +0000",1528312533.156458,0.535782,0.318013,0.727318,0.484916,-0.312680,-0.816755,0.000000,0.000000,0.000000,-1,0.159577,-0.029038,-0.630938,0.097329,0.094677,0.162244
"2018-06-06 19:15:33.247 +0000",1528312533.247120,0.601038,0.317346,0.751543,0.537261,-0.312046,-0.783567,0.000000,0.000000,0.000000,-1,-0.431511,1.672596,1.314752,0.288514,0.077824,-0.004290
"2018-06-06 19:15:33.338 +0000",1528312533.337783,0.623680,0.326206,0.811337,0.553228,-0.320451,-0.768928,0.000000,0.000000,0.000000,-1,0.526748,0.681170,-0.113404,0.042720,-0.032210,0.103843
"2018-06-06 19:15:33.428 +0000",1528312533.428445,0.660080,0.368953,0.870781,0.571916,-0.360639,-0.736784,0.000000,0.000000,0.000000,-1,-0.548479,0.287535,1.945622,0.477690,-0.279147,0.283720
"2018-06-06 19:15:33.519 +0000",1528312533.519109,0.423439,0.406998,1.123806,0.377333,-0.395854,-0.837209,0.000000,0.000000,0.000000,-1,-1.129039,-2.570375,0.347759,-0.828459,0.038173,-0.143611
"2018-06-06 19:15:33.610 +0000",1528312533.609771,0.353426,0.350235,0.928873,0.325102,-0.343118,-0.881237,0.000000,0.000000,0.000000,-1,0.311312,-0.880997,-1.820202,0.202104,0.291192,-0.006870
"2018-06-06 19:15:33.700 +0000",1528312533.700433,0.398783,0.283523,0.753356,0.372795,-0.279739,-0.884743,0.000000,0.000000,0.000000,-1,0.123066,2.081002,-1.471250,0.235375,-0.133408,0.083122
"2018-06-06 19:15:33.791 +0000",1528312533.791095,0.697191,0.312341,0.650987,0.611001,-0.307288,-0.729556,0.000000,0.000000,0.000000,-1,0.323258,2.727485,-0.265106,0.078894,0.337637,-0.066236
"2018-06-06 19:15:33.882 +0000",1528312533.881757,1.008635,0.273724,0.603384,0.814605,-0.270319,-0.513172,0.000000,0.000000,0.000000,-1,0.824241,2.738367,-1.220318,-0.182556,0.179864,-0.205074
"2018-06-06 19:15:33.972 +0000",1528312533.972421,1.082024,0.198545,0.417160,0.865565,-0.197243,-0.460318,0.000000,0.000000,0.000000,-1,0.097373,-0.136691,-2.228443,-0.150141,-0.314491,-0.112558
"2018-06-06 19:15:34.063 +0000",1528312534.063083,0.964809,0.119261,0.423821,0.816102,-0.118978,-0.565528,0.000000,0.000000,0.000000,-1,-1.420049,-1.508315,-1.279163,0.027648,-0.101358,0.263389
"2018-06-06 19:15:34.154 +0000",1528312534.153745,0.980677,0.085720,0.402322,0.827823,-0.085615,-0.554417,0.000000,0.000000,0.000000,-1,-0.421909,-0.296427,0.444184,-0.030552,-0.180209,-0.067851
"2018-06-06 19:15:34.244 +0000",1528312534.244408,0.911602,-0.013434,0.512045,0.790414,0.013434,-0.612425,0.000000,0.000000,0.000000,-1,-2.016096,-0.775748,0.337800,0.037131,-0.255057,-0.071276
"2018-06-06 19:15:34.335 +0000",1528312534.335070,1.007173,-0.137583,0.697098,0.837337,0.137149,-0.529204,0.000000,0.000000,0.000000,-1,-2.147768,-1.049139,-0.262904,-0.430675,0.177106,0.372237
"2018-06-06 19:15:34.426 +0000",1528312534.425733,1.009547,-0.113609,0.727304,0.841133,0.113365,-0.528813,0.000000,0.000000,0.000000,-1,1.421523,0.776957,-0.110873,0.087776,0.080407,0.169407
"2018-06-06 19:15:34.516 +0000",1528312534.516395,1.109798,-0.147131,0.604591,0.885932,0.146601,-0.440036,0.000000,0.000000,0.000000,-1,0.528905,1.002686,-1.391416,0.013177,-0.033747,0.071139
"2018-06-06 19:15:34.607 +0000",1528312534.607057,1.111004,-0.197511,0.581027,0.878721,0.196230,-0.435134,0.000000,0.000000,0.000000,-1,0.176785,0.272555,0.236868,0.141542,-0.159731,0.193832
"2018-06-06 19:15:34.698 +0000",1528312534.697720,1.090215,-0.131299,0.565999,0.879094,0.130922,-0.458315,0.000000,0.000000,0.000000,-1,0.457226,-1.299486,0.430647,0.057048,-0.046922,0.179003
"2018-06-06 19:15:34.788 +0000",1528312534.788382,0.979025,-0.021392,0.522766,0.829764,0.021391,-0.557704,0.000000,0.000000,0.000000,-1,0.916715,-1.662732,1.232045,0.060617,0.076876,0.035792
"2018-06-06 19:15:34.879 +0000",1528312534.879044,0.875533,0.097100,0.444097,0.764268,-0.096948,-0.637570,0.000000,0.000000,0.000000,-1,1.981921,-0.354087,-0.182136,0.067138,0.128854,0.172985
"2018-06-06 19:15:34.970 +0000",1528312534.969707,0.894015,0.149468,0.349449,0.770900,-0.148912,-0.619304,0.000000,0.000000,0.000000,-1,-0.156203,-0.806289,-0.309784,-0.007808,0.100206,0.075816
"2018-06-06 19:15:35.060 +0000",1528312535.060369,0.793971,0.072290,0.334304,0.711279,-0.072227,-0.699188,0.000000,0.000000,0.000000,-1,-0.661868,-1.107598,-1.307701,0.066476,-0.180977,0.171249
"2018-06-06 19:15:35.151 +0000",1528312535.151031,0.782568,0.044718,0.274414,0.704397,-0.044703,-0.708396,0.000000,0.000000,0.000000,-1,0.327321,-0.532879,-0.528452,0.060861,0.122172,0.016761
"2018-06-06 19:15:35.242 +0000",1528312535.241694,0.755863,0.008718,0.260459,0.685891,-0.008718,-0.727652,0.000000,0.000000,0.000000,-1,-0.096902,-0.270442,-0.301905,0.020057,0.011800,0.071661
"2018-06-06 19:15:35.332 +0000",1528312535.332356,0.754768,-0.009552,0.263076,0.685088,0.009552,-0.728397,0.000000,0.000000,0.000000,-1,-0.369712,-0.849349,-0.129785,0.062974,-0.020217,0.038700
"2018-06-06 19:15:35.423 +0000",1528312535.423018,0.704022,-0.054944,0.273326,0.646312,0.054917,-0.761094,0.000000,0.000000,0.000000,-1,-0.001170,-0.387138,0.103055,-0.074672,-0.161286,0.019441
"2018-06-06 19:15:35.514 +0000",1528312535.513681,0.705318,-0.047954,0.277416,0.647531,0.047935,-0.760530,0.000000,0.000000,0.000000,-1,-0.005832,0.002508,0.114955,0.031989,0.111458,-0.000838
"2018-06-06 19:15:35.604 +0000",1528312535.604343,0.695619,-0.059476,0.299799,0.639727,0.059441,-0.766299,0.000000,0.000000,0.000000,-1,-0.154299,-0.198530,0.051247,-0.037112,0.080055,-0.052975
"2018-06-06 19:15:35.695 +0000",1528312535.695005,0.668371,-0.067103,0.302662,0.618313,0.067052,-0.783065,0.000000,0.000000,0.000000,-1,-0.125158,-0.058008,0.068800,-0.082806,0.177912,-0.052445
"2018-06-06 19:15:35.786 +0000",1528312535.785667,0.724582,-0.065736,0.296241,0.661391,0.065688,-0.747159,0.000000,0.000000,0.000000,-1,0.206426,1.176126,0.231902,0.117540,-0.203002,0.012830
"2018-06-06 19:15:35.876 +0000",1528312535.876330,0.721082,-0.063487,0.277760,0.658867,0.063445,-0.749578,0.000000,0.000000,0.000000,-1,0.106437,-0.560596,-0.347316,0.022712,-0.124755,0.047384
"2018-06-06 19:15:35.967 +0000",1528312535.966991,0.618616,-0.096527,0.275575,0.577209,0.096377,-0.810889,0.000000,0.000000,0.000000,-1,-0.614844,-2.005656,-0.207883,-0.049407,0.002424,0.035239
"2018-06-06 19:15:36.058 +0000",1528312536.057653,0.513213,-0.149291,0.236168,0.485518,0.148737,-0.861481,0.000000,0.000000,0.000000,-1,0.107641,-0.436969,-0.245848,0.065798,0.235449,0.226914
"2018-06-06 19:15:36.148 +0000",1528312536.148316,0.505676,-0.177430,0.220679,0.476794,0.176500,-0.861113,0.000000,0.000000,0.000000,-1,-0.461768,2.012919,-0.805358,-0.119677,0.217375,0.461866
"2018-06-06 19:15:36.239 +0000",1528312536.238978,0.569797,-0.252788,0.191485,0.522316,0.250104,-0.815250,0.000000,0.000000,0.000000,-1,0.145749,0.106881,0.195586,-0.160256,-0.064527,0.129505
"2018-06-06 19:15:36.330 +0000",1528312536.329640,0.523130,-0.246728,0.160725,0.484464,0.244232,-0.840026,0.000000,0.000000,0.000000,-1,0.046350,-0.861730,-0.828867,-0.217085,0.036850,0.015991
"2018-06-06 19:15:36.420 +0000",1528312536.420302,0.525208,-0.215241,0.114234,0.489823,0.213583,-0.845255,0.000000,0.000000,0.000000,-1,0.496824,-0.333436,-0.331414,-0.101258,0.033320,-0.007437
"2018-06-06 19:15:36.511 +0000",1528312536.510965,0.491893,-0.177220,0.050754,0.464898,0.176293,-0.867635,0.000000,0.000000,0.000000,-1,0.661459,-0.433550,-0.694574,-0.055993,0.004111,0.031545
"2018-06-06 19:15:36.602 +0000",1528312536.601627,0.417077,-0.161327,-0.010436,0.399830,0.160628,-0.902405,0.000000,0.000000,0.000000,-1,0.283554,-0.462563,-0.308712,0.097317,0.064576,-0.068451
"2018-06-06 19:15:36.692 +0000",1528312536.692289,0.384614,-0.148659,-0.029185,0.371063,0.148113,-0.916719,0.000000,0.000000,0.000000,-1,-0.111586,-0.063553,0.353799,-0.127579,0.272053,-0.123228
"2018-06-06 19:15:36.783 +0000",1528312536.782952,0.446248,-0.160941,0.005110,0.426007,0.160247,-0.890415,0.000000,0.000000,0.000000,-1,-0.680070,1.108804,0.515556,-0.099591,0.178346,-0.067928
"2018-06-06 19:15:36.874 +0000",1528312536.873614,0.545674,-0.180654,0.077118,0.510548,0.179673,-0.840867,0.000000,0.000000,0.000000,-1,-0.403259,0.966530,0.595181,-0.061390,-0.164277,0.095247
"2018-06-06 19:15:36.964 +0000",1528312536.964276,0.569694,-0.185496,0.113607,0.530121,0.184434,-0.827620,0.000000,0.000000,0.000000,-1,-0.199780,-0.610227,0.553557,0.153763,-0.271684,-0.161058
"2018-06-06 19:15:37.055 +0000",1528312537.054939,0.579179,-0.178696,0.190368,0.538622,0.177747,-0.823585,0.000000,0.000000,0.000000,-1,-0.466295,-0.909044,0.692056,-0.014833,0.027499,0.028816
"2018-06-06 19:15:37.146 +0000",1528312537.145601,0.578242,-0.171583,0.215916,0.538526,0.170743,-0.825128,0.000000,0.000000,0.000000,-1,0.307663,1.041534,0.195783,0.026293,-0.055661,-0.033133
"2018-06-06 19:15:37.236 +0000",1528312537.236263,0.622817,-0.155090,0.218651,0.576324,0.154470,-0.802490,0.000000,0.000000,0.000000,-1,0.134776,0.598125,0.059358,-0.059707,0.010859,0.015609
"2018-06-06 19:15:37.327 +0000",1528312537.326926,0.629087,-0.154790,0.211998,0.581372,0.154173,-0.798897,0.000000,0.000000,0.000000,-1,0.069669,0.138316,-0.022508,0.046955,-0.063429,0.018593
"2018-06-06 19:15:37.418 +0000",1528312537.417588,0.630800,-0.148147,0.210429,0.583330,0.147606,-0.798710,0.000000,0.000000,0.000000,-1,0.009282,-0.053245,0.068502,-0.005679,0.029747,-0.012539
"2018-06-06 19:15:37.508 +0000",1528312537.508251,0.625974,-0.149042,0.216099,0.579391,0.148491,-0.801408,0.000000,0.000000,0.000000,-1,-0.045059,-0.091687,0.037321,0.020493,0.010017,-0.009627
"2018-06-06 19:15:37.599 +0000",1528312537.598913,0.619301,-0.148985,0.227607,0.574035,0.148435,-0.805264,0.000000,0.000000,0.000000,-1,-0.142777,-0.062897,0.175311,0.094986,0.026538,0.039990
"2018-06-06 19:15:37.690 +0000",1528312537.689576,0.614152,-0.149792,0.238260,0.569813,0.149233,-0.808110,0.000000,0.000000,0.000000,-1,0.097911,-0.029715,0.013510,-0.011799,-0.031313,-0.038631
"2018-06-06 19:15:37.780 +0000",1528312537.780238,0.628267,-0.126549,0.238575,0.583044,0.126211,-0.802577,0.000000,0.000000,0.000000,-1,0.218092,0.394772,0.176892,0.063273,-0.006216,0.021480
"2018-06-06 19:15:37.871 +0000",1528312537.870901,0.650079,-0.101278,0.245586,0.602148,0.101105,-0.791956,0.000000,0.000000,0.000000,-1,-0.044619,-0.534124,0.308172,0.013895,-0.007813,0.045176
"2018-06-06 19:15:37.962 +0000",1528312537.961565,0.469196,-0.136330,0.280292,0.447974,0.135908,-0.883656,0.000000,0.000000,0.000000,-1,-1.293313,-3.804929,-0.128742,0.086526,-0.126539,-0.094844
"2018-06-06 19:15:38.052 +0000",1528312538.052227,0.260856,-0.187969,0.280006,0.253365,0.186864,-0.949151,0.000000,0.000000,0.000000,-1,0.175668,0.039189,-0.135982,-0.147896,0.049540,0.079934
"2018-06-06 19:15:38.143 +0000",1528312538.142890,0.275070,-0.165255,0.263199,0.267914,0.164504,-0.949295,0.000000,0.000000,0.000000,-1,0.430766,0.216085,-0.003748,-0.042236,-0.104751,0.000991
"2018-06-06 19:15:38.234 +0000",1528312538.233552,0.308512,-0.129831,0.236332,0.301085,0.129467,-0.944768,0.000000,0.000000,0.000000,-1,0.555125,0.423721,-0.220709,0.309572,0.205906,-0.131298
"2018-06-06 19:15:38.324 +0000",1528312538.324215,0.317274,-0.115025,0.223695,0.309916,0.114772,-0.943811,0.000000,0.000000,0.000000,-1,0.252081,0.148515,0.021200,-0.012767,0.050267,-0.026160
"2018-06-06 19:15:38.415 +0000",1528312538.414878,0.347403,-0.093323,0.213360,0.338976,0.093187,-0.936168,0.000000,0.000000,0.000000,-1,0.459455,0.576022,0.045633,-0.028337,-0.041185,0.043407
"2018-06-06 19:15:38.506 +0000",1528312538.505540,0.398985,-0.060794,0.215260,0.387765,0.060756,-0.919753,0.000000,0.000000,0.000000,-1,0.311012,0.667108,0.216189,-0.034631,-0.010128,-0.003388
"2018-06-06 19:15:38.596 +0000",1528312538.596203,0.453907,-0.034300,0.231738,0.438222,0.034294,-0.898212,0.000000,0.000000,0.000000,-1,0.121718,0.367706,0.283518,0.020411,0.068795,-0.031003
"2018-06-06 19:15:38.687 +0000",1528312538.686866,0.481837,-0.018428,0.248456,0.463329,0.018426,-0.885994,0.000000,0.000000,0.000000,-1,0.118839,0.164653,0.273253,0.012715,0.012824,-0.036873
"2018-06-06 19:15:38.778 +0000",1528312538.777528,0.500759,-0.006183,0.262270,0.480082,0.006183,-0.877201,0.000000,0.000000,0.000000,-1,0.052319,0.204964,0.040107,0.027624,-0.033328,0.012944
"2018-06-06 19:15:38.868 +0000",1528312538.868191,0.515017,-0.010133,0.262650,0.492524,0.010133,-0.870239,0.000000,0.000000,0.000000,-1,-0.159377,0.071209,-0.141581,0.056381,-0.027253,-0.016601
"2018-06-06 19:15:38.959 +0000",1528312538.958855,0.503030,-0.049411,0.258920,0.481494,0.049391,-0.875056,0.000000,0.000000,0.000000,-1,-0.531236,-0.142352,-0.246764,-0.070270,-0.019423,0.068263
"2018-06-06 19:15:39.050 +0000",1528312539.049518,0.478890,-0.059276,0.251928,0.459985,0.059241,-0.885948,0.000000,0.000000,0.000000,-1,0.086318,-0.434488,-0.068320,0.022299,0.098199,-0.030923
"2018-06-06 19:15:39.140 +0000",1528312539.140180,0.415746,-0.064218,0.234152,0.403040,0.064174,-0.912929,0.000000,0.000000,0.000000,-1,0.081343,-0.492515,-0.370733,-0.033136,0.032521,0.026287
"2018-06-06 19:15:39.231 +0000",1528312539.230843,0.407278,-0.065063,0.244530,0.395273,0.065017,-0.916259,0.000000,0.000000,0.000000,-1,-0.065254,0.088201,0.319705,0.018698,-0.242233,-0.024476
"2018-06-06 19:15:39.322 +0000",1528312539.321506,0.409972,-0.056300,0.252933,0.397952,0.056270,-0.915679,0.000000,0.000000,0.000000,-1,0.071084,0.052269,0.077266,0.040922,-0.039058,-0.004915
"2018-06-06 19:15:39.412 +0000",1528312539.412169,0.411281,-0.048310,0.254412,0.399317,0.048292,-0.915540,0.000000,0.000000,0.000000,-1,0.057679,0.017220,0.049228,-0.000682,-0.019483,-0.000156
"2018-06-06 19:15:39.503 +0000",1528312539.502831,0.413562,-0.042333,0.255869,0.401513,0.042320,-0.914874,0.000000,0.000000,0.000000,-1,0.046249,0.033731,0.031016,-0.019509,-0.019448,0.003879
"2018-06-06 19:15:39.593 +0000",1528312539.593493,0.416978,-0.035973,0.257319,0.404737,0.035966,-0.913725,0.000000,0.000000,0.000000,-1,0.052368,0.052320,0.052569,-0.003477,-0.015442,0.004195
"2018-06-06 19:15:39.684 +0000",1528312539.684156,0.419655,-0.028828,0.259016,0.407276,0.028824,-0.912850,0.000000,0.000000,0.000000,-1,0.068329,0.019526,0.029848,0.023678,-0.023255,0.011147
"2018-06-06 19:15:39.775 +0000",1528312539.774820,0.420125,-0.021963,0.257760,0.407776,0.021961,-0.912818,0.000000,0.000000,0.000000,-1,0.054840,-0.015567,0.012567,0.029144,-0.026294,0.009162
"2018-06-06 19:15:39.865 +0000",1528312539.865483,0.420808,-0.016194,0.258304,0.408445,0.016193,-0.912639,0.000000,0.000000,0.000000,-1,0.040968,0.004045,0.038471,0.006747,-0.014195,0.004497
"2018-06-06 19:15:39.956 +0000",1528312539.956145,0.421152,-0.011706,0.261412,0.408784,0.011706,-0.912556,0.000000,0.000000,0.000000,-1,0.022983,0.000630,0.055713,-0.011491,-0.011126,-0.001964
"2018-06-06 19:15:40.047 +0000",1528312540.046807,0.421480,-0.008196,0.265873,0.409098,0.008196,-0.912454,0.000000,0.000000,0.000000,-1,0.000959,0.018160,0.049360,-0.001596,-0.014056,-0.005195
"2018-06-06 19:15:40.137 +0000",1528312540.137470,0.421260,-0.006075,0.266475,0.408903,0.006075,-0.912557,0.000000,0.000000,0.000000,-1,0.026690,-0.010040,-0.015319,-0.008787,-0.023669,0.011816
"2018-06-06 19:15:40.228 +0000",1528312540.228133,0.418451,-0.005258,0.261563,0.406340,0.005258,-0.913707,0.000000,0.000000,0.000000,-1,0.040685,-0.020798,-0.058408,-0.000105,-0.016748,0.007869
"2018-06-06 19:15:40.319 +0000",1528312540.318796,0.414958,-0.005519,0.252280,0.403145,0.005519,-0.915119,0.000000,0.000000,0.000000,-1,0.032709,-0.026082,-0.113266,-0.000679,-0.013148,0.000919
"2018-06-06 19:15:40.409 +0000",1528312540.409459,0.408153,-0.006919,0.236591,0.396905,0.006919,-0.917833,0.000000,0.000000,0.000000,-1,0.048091,-0.077292,-0.195199,0.020163,-0.028022,0.004122
"2018-06-06 19:15:40.500 +0000",1528312540.500121,0.398920,-0.010822,0.217346,0.388401,0.010822,-0.921427,0.000000,0.000000,0.000000,-1,0.025236,-0.090398,-0.226378,0.012219,-0.006183,0.008509
"2018-06-06 19:15:40.591 +0000",1528312540.590785,0.391293,-0.015144,0.202270,0.381340,0.015144,-0.924311,0.000000,0.000000,0.000000,-1,0.012907,-0.066691,-0.128398,-0.011193,0.009911,-0.008139
"2018-06-06 19:15:40.681 +0000",1528312540.681448,0.385701,-0.018494,0.191931,0.376144,0.018493,-0.926377,0.000000,0.000000,0.000000,-1,-0.007123,-0.033837,-0.122878,-0.012512,-0.031295,-0.000091
"2018-06-06 19:15:40.772 +0000",1528312540.772110,0.383845,-0.023718,0.181654,0.374384,0.023716,-0.926971,0.000000,0.000000,0.000000,-1,0.004504,-0.006307,-0.135732,0.005148,-0.000156,-0.001161
"2018-06-06 19:15:40.863 +0000",1528312540.862772,0.382006,-0.027236,0.169727,0.372645,0.027232,-0.927574,0.000000,0.000000,0.000000,-1,0.016014,-0.004101,-0.130374,-0.004694,0.009541,-0.009407
"2018-06-06 19:15:40.953 +0000",1528312540.953434,0.381998,-0.030013,0.158242,0.372608,0.030009,-0.927504,0.000000,0.000000,0.000000,-1,0.021329,-0.009544,-0.137931,0.014660,-0.005213,0.001844
"2018-06-06 19:15:41.044 +0000",1528312541.044098,0.380579,-0.032288,0.145642,0.371265,0.032283,-0.927966,0.000000,0.000000,0.000000,-1,0.023435,-0.015027,-0.137952,0.005551,-0.008876,0.000292
"2018-06-06 19:15:41.135 +0000",1528312541.134761,0.378883,-0.035400,0.133965,0.369651,0.035393,-0.928496,0.000000,0.000000,0.000000,-1,-0.000844,-0.009669,-0.122822,0.016976,-0.025276,0.006652
"2018-06-06 19:15:41.225 +0000",1528312541.225423,0.377848,-0.039278,0.125965,0.368636,0.039268,-0.928744,0.000000,0.000000,0.000000,-1,-0.024286,-0.014310,-0.078680,0.010590,-0.006630,-0.002698
"2018-06-06 19:15:41.316 +0000",1528312541.316086,0.377915,-0.042217,0.121849,0.368655,0.042204,-0.928608,0.000000,0.000000,0.000000,-1,-0.012026,-0.000184,-0.035640,-0.001559,-0.005522,-0.001095
"2018-06-06 19:15:41.407 +0000",1528312541.406749,0.378990,-0.042444,0.120438,0.369649,0.042431,-0.928202,0.000000,0.000000,0.000000,-1,0.017135,0.009647,-0.004485,0.000499,-0.005566,-0.001211
"2018-06-06 19:15:41.497 +0000",1528312541.497412,0.378107,-0.039483,0.119210,0.368874,0.039473,-0.928641,0.000000,0.000000,0.000000,-1,0.045466,-0.019945,0.002894,0.005501,-0.015455,0.006751
"2018-06-06 19:15:41.588 +0000",1528312541.588075,0.376606,-0.035722,0.118911,0.367532,0.035714,-0.929325,0.000000,0.000000,0.000000,-1,0.026404,-0.013493,0.022318,0.006049,-0.017541,0.003956
"2018-06-06 19:15:41.679 +0000",1528312541.678737,0.376407,-0.033101,0.121069,0.367380,0.033095,-0.929482,0.000000,0.000000,0.000000,-1,0.010529,-0.000422,0.036376,-0.002085,-0.006988,-0.000389
"2018-06-06 19:15:41.769 +0000",1528312541.769400,0.376645,-0.030768,0.124162,0.367629,0.030763,-0.929464,0.000000,0.000000,0.000000,-1,0.007314,0.006124,0.043932,0.001100,-0.005907,-0.001002
"2018-06-06 19:15:41.860 +0000",1528312541.860063,0.377433,-0.028140,0.128076,0.368390,0.028136,-0.929246,0.000000,0.000000,0.000000,-1,0.011448,0.007197,0.052531,0.002796,-0.003844,-0.002899
"2018-06-06 19:15:41.951 +0000",1528312541.950726,0.377882,-0.025340,0.131649,0.368834,0.025338,-0.929150,0.000000,0.000000,0.000000,-1,0.016814,-0.000414,0.038513,0.005494,-0.007881,0.001812
"2018-06-06 19:15:42.041 +0000",1528312542.041388,0.377390,-0.023233,0.133006,0.368396,0.023231,-0.929379,0.000000,0.000000,0.000000,-1,0.009712,-0.011281,0.007304,0.007108,-0.011955,-0.000202
"2018-06-06 19:15:42.132 +0000",1528312542.132051,0.376780,-0.022368,0.132662,0.367836,0.022366,-0.929622,0.000000,0.000000,0.000000,-1,0.007681,-0.006855,-0.002360,-0.001839,-0.006497,-0.000814
"2018-06-06 19:15:42.223 +0000",1528312542.222714,0.376799,-0.021756,0.132730,0.367859,0.021754,-0.929627,0.000000,0.000000,0.000000,-1,0.002344,0.005165,0.007368,-0.003220,-0.005244,-0.003265
"2018-06-06 19:15:42.313 +0000",1528312542.313377,0.377188,-0.020963,0.133425,0.368227,0.020962,-0.929500,0.000000,0.000000,0.000000,-1,0.005479,0.004065,0.009507,0.002653,-0.008343,0.000789
"2018-06-06 19:15:42.404 +0000",1528312542.404040,0.377364,-0.019750,0.134258,0.368399,0.019748,-0.929458,0.000000,0.000000,0.000000,-1,0.005446,0.004047,0.013810,0.007318,-0.007999,-0.002183
"2018-06-06 19:15:42.495 +0000",1528312542.494703,0.377561,-0.018926,0.135221,0.368588,0.018925,-0.929400,0.000000,0.000000,0.000000,-1,0.000232,-0.000341,0.009506,0.002918,-0.011158,0.001742
"2018-06-06 19:15:42.585 +0000",1528312542.585365,0.377769,-0.018442,0.135995,0.368785,0.018441,-0.929332,0.000000,0.000000,0.000000,-1,0.000227,0.004050,0.009519,0.000783,-0.004556,-0.000615
"2018-06-06 19:15:42.676 +0000",1528312542.676028,0.378061,-0.017549,0.137157,0.369062,0.017549,-0.929239,0.000000,0.000000,0.000000,-1,0.003315,0.001827,0.018111,0.001742,-0.006455,-0.001822
"2018-06-06 19:15:42.767 +0000",1528312542.766691,0.378396,-0.016645,0.138751,0.369379,0.016645,-0.929130,0.000000,0.000000,0.000000,-1,0.000127,0.005094,0.022430,0.001623,-0.006986,-0.001031
"2018-06-06 19:15:42.857 +0000",1528312542.857354,0.378850,-0.015940,0.140679,0.369805,0.015940,-0.928972,0.000000,0.000000,0.000000,-1,-0.002993,0.007298,0.018141,0.004645,-0.006220,-0.001081
"2018-06-06 19:15:42.948 +0000",1528312542.948017,0.378799,-0.015405,0.141823,0.369761,0.015405,-0.928999,0.000000,0.000000,0.000000,-1,0.002354,-0.005815,0.007334,0.005330,-0.007226,-0.000734
"2018-06-06 19:15:43.039 +0000",1528312543.038679,0.378537,-0.015195,0.142117,0.369519,0.015194,-0.929099,0.000000,0.000000,0.000000,-1,0.000306,-0.000300,-0.000175,-0.001385,-0.006756,-0.001336
"2018-06-06 19:15:43.129 +0000",1528312543.129342,0.378634,-0.014970,0.142159,0.369610,0.014970,-0.929066,0.000000,0.000000,0.000000,-1,-0.000793,0.007359,0.005228,-0.001415,-0.003876,-0.002300
"2018-06-06 19:15:43.220 +0000",1528312543.220005,0.379447,-0.014705,0.142770,0.370367,0.014705,-0.928769,0.000000,0.000000,0.000000,-1,-0.000794,0.008456,0.005232,0.002634,-0.010707,0.001065
"2018-06-06 19:15:43.311 +0000",1528312543.310668,0.380086,-0.014678,0.143439,0.370960,0.014678,-0.928533,0.000000,0.000000,0.000000,-1,-0.002900,0.005153,0.006303,0.004391,-0.004927,-0.000819
"2018-06-06 19:15:43.401 +0000",1528312543.401330,0.380461,-0.014320,0.144089,0.371310,0.014319,-0.928398,0.000000,0.000000,0.000000,-1,0.006538,0.004072,0.008429,0.004788,-0.002158,-0.001121
"2018-06-06 19:15:43.492 +0000",1528312543.491993,0.380477,-0.013533,0.144351,0.371330,0.013533,-0.928402,0.000000,0.000000,0.000000,-1,0.006551,-0.001412,0.007337,0.000298,-0.006956,0.000210
"2018-06-06 19:15:43.583 +0000",1528312543.582655,0.380834,-0.013144,0.144880,0.371662,0.013143,-0.928275,0.000000,0.000000,0.000000,-1,-0.002899,0.004055,0.006299,-0.001973,-0.006689,0.000571
"2018-06-06 19:15:43.673 +0000",1528312543.673319,0.381415,-0.012947,0.145430,0.372203,0.012947,-0.928061,0.000000,0.000000,0.000000,-1,-0.000793,0.007359,0.005228,0.001409,-0.007194,-0.001550
"2018-06-06 19:15:43.764 +0000",1528312543.763982,0.381835,-0.012951,0.145833,0.372592,0.012951,-0.927905,0.000000,0.000000,0.000000,-1,-0.002854,0.000784,0.000911,0.004132,-0.006801,-0.000120
"2018-06-06 19:15:43.855 +0000",1528312543.854645,0.381886,-0.013250,0.145782,0.372638,0.013250,-0.927882,0.000000,0.000000,0.000000,-1,-0.004921,-0.000301,-0.003390,0.000866,-0.002905,-0.000432
"2018-06-06 19:15:43.945 +0000",1528312543.945307,0.382182,-0.013220,0.145808,0.372914,0.013220,-0.927772,0.000000,0.000000,0.000000,-1,0.002405,0.001901,-0.000173,0.001842,-0.004049,-0.000588
"2018-06-06 19:15:44.036 +0000",1528312544.035971,0.382224,-0.013012,0.145609,0.372953,0.013011,-0.927759,0.000000,0.000000,0.000000,-1,0.001365,-0.000293,-0.001253,-0.001325,-0.006007,0.000589
"2018-06-06 19:15:44.127 +0000",1528312544.126634,0.382537,-0.012744,0.145913,0.373245,0.012743,-0.927645,0.000000,0.000000,0.000000,-1,0.001306,0.000773,0.006280,0.000367,-0.004443,0.000170
"2018-06-06 19:15:44.217 +0000",1528312544.217297,0.382655,-0.012157,0.146358,0.373357,0.012157,-0.927608,0.000000,0.000000,0.000000,-1,0.005501,-0.001415,0.007340,0.002177,-0.005413,-0.000065
"2018-06-06 19:15:44.308 +0000",1528312544.307960,0.382669,-0.011764,0.146475,0.373372,0.011763,-0.927607,0.000000,0.000000,0.000000,-1,0.000293,-0.003602,0.001521,0.001720,-0.007232,-0.000509
"2018-06-06 19:15:44.399 +0000",1528312544.398622,0.382717,-0.011726,0.146401,0.373416,0.011726,-0.927590,0.000000,0.000000,0.000000,-1,-0.000746,0.001893,-0.000612,0.001187,-0.004783,0.000710
"2018-06-06 19:15:44.489 +0000",1528312544.489285,0.382712,-0.011489,0.146202,0.373413,0.011489,-0.927594,0.000000,0.000000,0.000000,-1,0.004500,-0.001390,0.000442,0.000442,-0.003615,-0.001468
"2018-06-06 19:15:44.580 +0000",1528312544.579948,0.382816,-0.011042,0.146329,0.373511,0.011042,-0.927560,0.000000,0.000000,0.000000,-1,0.003436,0.004091,0.001536,0.000955,-0.004221,-0.000861
"2018-06-06 19:15:44.671 +0000",1528312544.670611,0.383190,-0.010480,0.146755,0.373860,0.010480,-0.927426,0.000000,0.000000,0.000000,-1,0.000203,0.011726,0.011246,0.002940,-0.005231,-0.002643
"2018-06-06 19:15:44.761 +0000",1528312544.761273,0.383707,-0.010039,0.147214,0.374342,0.010039,-0.927236,0.000000,0.000000,0.000000,-1,-0.001850,0.005156,0.005854,0.000353,-0.006026,0.001440
"2018-06-06 19:15:44.852 +0000",1528312544.851936,0.383975,-0.009616,0.147506,0.374592,0.009616,-0.927140,0.000000,0.000000,0.000000,-1,0.003390,0.000771,0.007980,0.000347,-0.002856,-0.002776
"2018-06-06 19:15:44.943 +0000",1528312544.942599,0.384213,-0.008748,0.147860,0.374815,0.008747,-0.927058,0.000000,0.000000,0.000000,-1,0.007604,0.005182,0.005832,0.000139,-0.004139,-0.002141
"2018-06-06 19:15:45.033 +0000",1528312545.033262,0.384492,-0.007948,0.148299,0.375076,0.007948,-0.926960,0.000000,0.000000,0.000000,-1,0.003388,0.002966,0.007987,0.000260,-0.006468,0.000355
"2018-06-06 19:15:45.124 +0000",1528312545.123924,0.384825,-0.007637,0.148859,0.375386,0.007637,-0.926837,0.000000,0.000000,0.000000,-1,-0.000783,0.005168,0.003700,0.002284,-0.004432,-0.000714
"2018-06-06 19:15:45.215 +0000",1528312545.214587,0.384807,-0.007275,0.148903,0.375371,0.007275,-0.926846,0.000000,0.000000,0.000000,-1,0.005558,-0.000285,-0.000633,0.001354,-0.004024,-0.000491
"2018-06-06 19:15:45.305 +0000",1528312545.305250,0.384735,-0.007058,0.148619,0.375305,0.007058,-0.926875,0.000000,0.000000,0.000000,-1,0.003465,-0.000284,-0.001701,0.000229,-0.005898,0.000071
"2018-06-06 19:15:45.396 +0000",1528312545.395913,0.384758,-0.007094,0.148529,0.375325,0.007094,-0.926866,0.000000,0.000000,0.000000,-1,-0.002847,0.001890,-0.000605,0.001795,-0.004302,-0.003417
"2018-06-06 19:15:45.487 +0000",1528312545.486575,0.385195,-0.007192,0.148714,0.375730,0.007192,-0.926701,0.000000,0.000000,0.000000,-1,-0.000744,-0.000300,-0.000616,0.001284,-0.005498,0.000538
"2018-06-06 19:15:45.577 +0000",1528312545.577238,0.385402,-0.006979,0.148950,0.375923,0.006979,-0.926625,0.000000,0.000000,0.000000,-1,0.003404,0.002978,0.005838,0.000359,-0.003469,-0.000774
"2018-06-06 19:15:45.668 +0000",1528312545.667901,0.385522,-0.006500,0.149194,0.376035,0.006500,-0.926583,0.000000,0.000000,0.000000,-1,0.007626,-0.000295,0.003667,0.001483,-0.005615,0.001183
"2018-06-06 19:15:45.759 +0000",1528312545.758564,0.385371,-0.006330,0.149072,0.375895,0.006330,-0.926641,0.000000,0.000000,0.000000,-1,-0.000728,-0.000291,-0.002767,0.000265,-0.005094,0.000218
"2018-06-06 19:15:45.849 +0000",1528312545.849226,0.385505,-0.006633,0.149050,0.376018,0.006633,-0.926588,0.000000,0.000000,0.000000,-1,-0.002826,0.005197,-0.003822,0.002674,-0.004268,-0.000612
"2018-06-06 19:15:45.940 +0000",1528312545.939889,0.385664,-0.006767,0.149013,0.376166,0.006766,-0.926528,0.000000,0.000000,0.000000,-1,0.001354,0.001901,-0.000614,0.001291,-0.002677,-0.000200
"2018-06-06 19:15:46.031 +0000",1528312546.030551,0.385928,-0.006311,0.149202,0.376411,0.006311,-0.926431,0.000000,0.000000,0.000000,-1,0.006563,0.004089,0.004758,-0.001381,-0.004251,0.000497
"2018-06-06 19:15:46.121 +0000",1528312546.121213,0.386857,-0.005929,0.150074,0.377273,0.005929,-0.926083,0.000000,0.000000,0.000000,-1,-0.000855,0.020508,0.011277,0.000611,-0.003655,-0.000797
"2018-06-06 19:15:46.212 +0000",1528312546.211876,0.388201,-0.005259,0.150434,0.378518,0.005259,-0.925579,0.000000,0.000000,0.000000,-1,0.005498,0.010668,0.005855,0.003623,-0.002390,-0.001728
"2018-06-06 19:15:46.303 +0000",1528312546.302539,0.388355,-0.004254,0.149535,0.378663,0.004254,-0.925525,0.000000,0.000000,0.000000,-1,0.006694,-0.003527,-0.011399,0.000747,-0.009960,-0.001340
"2018-06-06 19:15:46.393 +0000",1528312546.393202,0.389451,-0.003977,0.148300,0.379677,0.003977,-0.925110,0.000000,0.000000,0.000000,-1,0.005613,0.019519,-0.010253,-0.003579,-0.006250,0.000748
"2018-06-06 19:15:46.484 +0000",1528312546.483864,0.391138,-0.004113,0.148461,0.381237,0.004113,-0.924468,0.000000,0.000000,0.000000,-1,-0.012507,0.028111,0.023159,-0.011792,0.005211,-0.002168
"2018-06-06 19:15:46.575 +0000",1528312546.574527,0.396166,-0.006487,0.151555,0.385876,0.006487,-0.922528,0.000000,0.000000,0.000000,-1,-0.028037,0.067731,-0.011111,0.029239,-0.009432,0.019848
"2018-06-06 19:15:46.665 +0000",1528312546.665190,0.397705,-0.007288,0.150316,0.387293,0.007288,-0.921928,0.000000,0.000000,0.000000,-1,0.000320,-0.005780,-0.001709,0.010031,0.000052,-0.000786
"2018-06-06 19:15:46.756 +0000",1528312546.755853,0.398338,-0.006140,0.152508,0.387880,0.006140,-0.921690,0.000000,0.000000,0.000000,-1,-0.004266,0.015964,0.045693,-0.006883,-0.004416,-0.005496
"2018-06-06 19:15:46.847 +0000",1528312546.846515,0.401318,-0.004936,0.157821,0.390628,0.004936,-0.920536,0.000000,0.000000,0.000000,-1,-0.011813,0.045492,0.067309,-0.005007,0.000084,0.000537
"2018-06-06 19:15:46.937 +0000",1528312546.937178,0.404085,-0.003141,0.165043,0.393176,0.003141,-0.919458,0.000000,0.000000,0.000000,-1,-0.006676,0.027870,0.084456,0.025769,-0.011335,0.010217
"2018-06-06 19:15:47.028 +0000",1528312547.027841,0.406930,-0.001074,0.174397,0.395792,0.001074,-0.918340,0.000000,0.000000,0.000000,-1,-0.023674,0.022226,0.110294,0.000525,-0.000571,0.006459
"2018-06-06 19:15:47.119 +0000",1528312547.118504,0.409638,0.001371,0.184502,0.398277,-0.001371,-0.917264,0.000000,0.000000,0.000000,-1,-0.022652,0.034295,0.112478,-0.016319,-0.004076,-0.002688
"2018-06-06 19:15:47.209 +0000",1528312547.209166,0.412988,0.003154,0.192618,0.401346,-0.003154,-0.915921,0.000000,0.000000,0.000000,-1,-0.007672,0.039979,0.075889,-0.005518,-0.001668,-0.000690
"2018-06-06 19:15:47.300 +0000",1528312547.299829,0.416907,0.005458,0.198971,0.404929,-0.005458,-0.914332,0.000000,0.000000,0.000000,-1,-0.002443,0.046571,0.078047,0.004511,-0.001180,0.000804
"2018-06-06 19:15:47.390 +0000",1528312547.390492,0.421304,0.008625,0.206668,0.408936,-0.008625,-0.912522,0.000000,0.000000,0.000000,-1,0.003665,0.050873,0.102783,-0.000931,0.002994,0.001099
"2018-06-06 19:15:47.481 +0000",1528312547.481155,0.426231,0.012846,0.216033,0.413408,-0.012846,-0.910455,0.000000,0.000000,0.000000,-1,0.007756,0.061808,0.115713,-0.002626,-0.001680,-0.003348
"2018-06-06 19:15:47.572 +0000",1528312547.571817,0.430762,0.018122,0.225878,0.417495,-0.018121,-0.908498,0.000000,0.000000,0.000000,-1,-0.004975,0.048523,0.133990,0.006211,-0.021872,0.003408
"2018-06-06 19:15:47.662 +0000",1528312547.662480,0.434659,0.020990,0.238799,0.421008,-0.020988,-0.906814,0.000000,0.000000,0.000000,-1,-0.044965,0.041779,0.144818,0.008588,-0.016441,0.004272
"2018-06-06 19:15:47.753 +0000",1528312547.753143,0.437481,0.022618,0.253698,0.423550,-0.022616,-0.905590,0.000000,0.000000,0.000000,-1,-0.068219,0.039438,0.164226,0.013416,-0.015210,0.004086
"2018-06-06 19:15:47.844 +0000",1528312547.843805,0.439731,0.022967,0.272290,0.425584,-0.022965,-0.904628,0.000000,0.000000,0.000000,-1,-0.088489,0.021637,0.207247,0.010207,-0.004699,-0.005101
"2018-06-06 19:15:47.934 +0000",1528312547.934468,0.440941,0.024753,0.296242,0.426660,-0.024750,-0.904073,0.000000,0.000000,0.000000,-1,-0.109012,0.017976,0.281502,0.012488,-0.015472,0.009832
"2018-06-06 19:15:48.025 +0000",1528312548.025131,0.440542,0.026898,0.325751,0.426276,-0.026895,-0.904193,0.000000,0.000000,0.000000,-1,-0.130306,-0.009699,0.322345,0.007043,-0.008628,0.001514
"2018-06-06 19:15:48.116 +0000",1528312548.115794,0.439189,0.027966,0.358425,0.425039,-0.027962,-0.904743,0.000000,0.000000,0.000000,-1,-0.153474,-0.007599,0.329934,0.000010,-0.015037,0.003925
"2018-06-06 19:15:48.206 +0000",1528312548.206456,0.437669,0.026805,0.391311,0.423677,-0.026802,-0.905416,0.000000,0.000000,0.000000,-1,-0.174368,-0.004301,0.314932,-0.003404,-0.002144,-0.003702
"2018-06-06 19:15:48.297 +0000",1528312548.297119,0.437085,0.024574,0.423346,0.423173,-0.024571,-0.905715,0.000000,0.000000,0.000000,-1,-0.163759,0.005671,0.299878,-0.004838,0.009709,-0.002274
"2018-06-06 19:15:48.388 +0000",1528312548.387782,0.436121,0.024519,0.452659,0.422299,-0.024517,-0.906124,0.000000,0.000000,0.000000,-1,-0.118465,-0.007311,0.284679,-0.004437,0.014507,-0.007938
"2018-06-06 19:15:48.478 +0000",1528312548.478444,0.434717,0.026762,0.477133,0.421003,-0.026759,-0.906664,0.000000,0.000000,0.000000,-1,-0.069682,-0.012411,0.224316,-0.005414,0.012187,-0.002516
"2018-06-06 19:15:48.569 +0000",1528312548.569107,0.433560,0.029125,0.493941,0.419926,-0.029121,-0.907090,0.000000,0.000000,0.000000,-1,-0.033320,-0.009759,0.139265,-0.010227,0.007316,-0.002196
"2018-06-06 19:15:48.660 +0000",1528312548.659770,0.432517,0.030581,0.503093,0.418961,-0.030576,-0.907489,0.000000,0.000000,0.000000,-1,-0.022250,0.002663,0.063980,-0.016541,0.007139,-0.004285
"2018-06-06 19:15:48.750 +0000",1528312548.750432,0.432388,0.030759,0.505497,0.418841,-0.030754,-0.907538,0.000000,0.000000,0.000000,-1,0.004582,-0.000245,-0.010309,-0.011828,0.005958,-0.002969
"2018-06-06 19:15:48.841 +0000",1528312548.841094,0.432551,0.030639,0.502270,0.418991,-0.030634,-0.907473,0.000000,0.000000,0.000000,-1,0.023816,0.002185,-0.053372,-0.002930,0.003794,-0.002607
"2018-06-06 19:15:48.932 +0000",1528312548.931757,0.432775,0.030486,0.495982,0.419197,-0.030481,-0.907383,0.000000,0.000000,0.000000,-1,0.029174,0.003356,-0.067364,-0.002083,-0.000616,-0.000957
"2018-06-06 19:15:49.022 +0000",1528312549.022420,0.433130,0.030158,0.489087,0.419523,-0.030153,-0.907244,0.000000,0.000000,0.000000,-1,0.030260,0.001181,-0.071675,0.002337,-0.001433,-0.000822
"2018-06-06 19:15:49.113 +0000",1528312549.113083,0.433282,0.029984,0.481726,0.419663,-0.029979,-0.907185,0.000000,0.000000,0.000000,-1,0.030295,-0.000996,-0.075984,0.001160,-0.003819,-0.001751
"2018-06-06 19:15:49.204 +0000",1528312549.203746,0.433579,0.029544,0.474378,0.419938,-0.029539,-0.907072,0.000000,0.000000,0.000000,-1,0.031362,-0.000984,-0.078138,-0.000764,0.000075,-0.002642
"2018-06-06 19:15:49.294 +0000",1528312549.294408,0.434154,0.029207,0.466152,0.420463,-0.029203,-0.906839,0.000000,0.000000,0.000000,-1,0.046171,0.011196,-0.093196,-0.003227,0.008573,-0.005728
"2018-06-06 19:15:49.385 +0000",1528312549.385071,0.435004,0.029375,0.454435,0.421233,-0.029371,-0.906477,0.000000,0.000000,0.000000,-1,0.055911,0.004795,-0.129803,-0.003340,-0.003634,-0.000597
"2018-06-06 19:15:49.476 +0000",1528312549.475734,0.436051,0.028566,0.441312,0.422191,-0.028562,-0.906057,0.000000,0.000000,0.000000,-1,0.054866,0.008090,-0.130866,0.003926,-0.004229,-0.001643
"2018-06-06 19:15:49.566 +0000",1528312549.566396,0.435953,0.028987,0.428726,0.422097,-0.028982,-0.906087,0.000000,0.000000,0.000000,-1,0.067402,-0.007288,-0.120183,0.002571,-0.004205,0.001088
"2018-06-06 19:15:49.657 +0000",1528312549.657059,0.435971,0.028802,0.416923,0.422115,-0.028798,-0.906084,0.000000,0.000000,0.000000,-1,0.044289,-0.001864,-0.120115,-0.004620,-0.007854,-0.000517
"2018-06-06 19:15:49.748 +0000",1528312549.747722,0.436470,0.028017,0.406133,0.422577,-0.028013,-0.905894,0.000000,0.000000,0.000000,-1,0.041012,0.000255,-0.103966,0.003739,-0.006411,-0.000081
"2018-06-06 19:15:49.838 +0000",1528312549.838384,0.436701,0.027697,0.396908,0.422790,-0.027694,-0.905804,0.000000,0.000000,0.000000,-1,0.034571,-0.000938,-0.085669,0.001740,-0.006288,0.000546
"2018-06-06 19:15:49.929 +0000",1528312549.929047,0.436889,0.027477,0.389597,0.422963,-0.027474,-0.905730,0.000000,0.000000,0.000000,-1,0.027043,0.001142,-0.063057,0.004741,-0.007911,0.000380
"2018-06-06 19:15:50.020 +0000",1528312550.019709,0.436800,0.027508,0.384950,0.422882,-0.027504,-0.905767,0.000000,0.000000,0.000000,-1,0.017371,-0.003397,-0.034006,0.004730,-0.009544,0.002813
"2018-06-06 19:15:50.110 +0000",1528312550.110372,0.436684,0.027427,0.382470,0.422778,-0.027424,-0.905818,0.000000,0.000000,0.000000,-1,0.002547,-0.000208,-0.018904,-0.000369,-0.006878,0.000224
"2018-06-06 19:15:50.201 +0000",1528312550.201035,0.436794,0.027294,0.381688,0.422879,-0.027291,-0.905775,0.000000,0.000000,0.000000,-1,0.002391,-0.000294,0.001534,-0.001065,-0.002769,-0.000887
"2018-06-06 19:15:50.292 +0000",1528312550.291697,0.436754,0.027700,0.382161,0.422838,-0.027696,-0.905782,0.000000,0.000000,0.000000,-1,0.002329,-0.004722,0.010126,0.003706,-0.003904,0.001897
"2018-06-06 19:15:50.382 +0000",1528312550.382360,0.436183,0.028220,0.382701,0.422314,-0.028217,-0.906010,0.000000,0.000000,0.000000,-1,0.002367,-0.010195,0.005805,0.001071,-0.003995,-0.000500
"2018-06-06 19:15:50.473 +0000",1528312550.473022,0.435642,0.028529,0.383067,0.421821,-0.028525,-0.906230,0.000000,0.000000,0.000000,-1,-0.002874,-0.004711,0.003682,-0.001807,-0.002526,-0.001393
"2018-06-06 19:15:50.564 +0000",1528312550.563685,0.435325,0.028331,0.383846,0.421536,-0.028327,-0.906369,0.000000,0.000000,0.000000,-1,-0.008147,0.000754,0.005861,-0.001980,-0.001535,0.000989
"2018-06-06 19:15:50.654 +0000",1528312550.654347,0.435186,0.027890,0.384093,0.421415,-0.027886,-0.906439,0.000000,0.000000,0.000000,-1,-0.002810,0.006307,-0.005967,-0.009565,-0.002234,-0.003061
"2018-06-06 19:15:50.745 +0000",1528312550.745010,0.436923,0.027673,0.383985,0.422991,-0.027669,-0.905711,0.000000,0.000000,0.000000,-1,-0.010387,0.033622,0.019945,-0.018344,-0.005458,0.012019
"2018-06-06 19:15:50.836 +0000",1528312550.835672,0.437286,0.028138,0.385733,0.423315,-0.028135,-0.905545,0.000000,0.000000,0.000000,-1,0.000155,-0.005868,0.019806,0.008112,0.002027,-0.004886
"2018-06-06 19:15:50.926 +0000",1528312550.926335,0.436341,0.029250,0.385764,0.422445,-0.029246,-0.905916,0.000000,0.000000,0.000000,-1,0.019189,-0.010139,0.003616,0.017863,-0.005712,-0.000090
"2018-06-06 19:15:51.017 +0000",1528312551.016997,0.434252,0.031039,0.386050,0.420529,-0.031034,-0.906748,0.000000,0.000000,0.000000,-1,0.012880,-0.036521,0.007856,0.011707,-0.001391,0.001978
"2018-06-06 19:15:51.108 +0000",1528312551.107659,0.431796,0.032098,0.384310,0.418287,-0.032093,-0.907747,0.000000,0.000000,0.000000,-1,0.023636,-0.016582,-0.027607,-0.015410,0.001194,-0.004652
"2018-06-06 19:15:51.198 +0000",1528312551.198322,0.431795,0.032411,0.381304,0.418281,-0.032405,-0.907739,0.000000,0.000000,0.000000,-1,0.001486,0.019550,-0.019922,-0.016121,-0.009984,-0.001166
"2018-06-06 19:15:51.289 +0000",1528312551.288984,0.433550,0.031509,0.381041,0.419887,-0.031504,-0.907029,0.000000,0.000000,0.000000,-1,-0.009232,0.019403,0.008069,0.015645,-0.000753,0.003785
"2018-06-06 19:15:51.380 +0000",1528312551.379647,0.433990,0.031613,0.382611,0.420284,-0.031607,-0.906842,0.000000,0.000000,0.000000,-1,-0.004023,-0.004768,0.016593,0.005665,-0.004861,0.001309
"2018-06-06 19:15:51.470 +0000",1528312551.470309,0.432857,0.031756,0.383444,0.419254,-0.031750,-0.907313,0.000000,0.000000,0.000000,-1,-0.002879,-0.008009,0.004749,0.000500,-0.005908,0.001185
"2018-06-06 19:15:51.561 +0000",1528312551.560972,0.432245,0.031547,0.383754,0.418702,-0.031542,-0.907576,0.000000,0.000000,0.000000,-1,0.001297,0.001874,0.006919,-0.011979,0.000887,-0.003466
"2018-06-06 19:15:51.652 +0000",1528312551.651634,0.433096,0.031736,0.384557,0.419472,-0.031731,-0.907213,0.000000,0.000000,0.000000,-1,0.001268,0.013940,0.009106,-0.006157,0.000145,-0.005278
"2018-06-06 19:15:51.742 +0000",1528312551.742297,0.433881,0.032242,0.384578,0.420177,-0.032236,-0.906869,0.000000,0.000000,0.000000,-1,0.004474,0.008487,0.002628,0.005024,-0.007879,-0.001258
"2018-06-06 19:15:51.833 +0000",1528312551.832959,0.434224,0.032463,0.384963,0.420485,-0.032457,-0.906719,0.000000,0.000000,0.000000,-1,-0.002935,-0.001449,0.011222,0.002443,-0.006544,-0.000035
"2018-06-06 19:15:51.924 +0000",1528312551.923623,0.434036,0.032501,0.386082,0.420314,-0.032495,-0.906797,0.000000,0.000000,0.000000,-1,-0.005031,-0.005846,0.011214,-0.003047,-0.006033,-0.002398
"2018-06-06 19:15:52.014 +0000",1528312552.014285,0.433969,0.032169,0.386452,0.420258,-0.032163,-0.906834,0.000000,0.000000,0.000000,-1,-0.004910,0.005204,-0.005965,0.004150,0.001981,-0.003230
"2018-06-06 19:15:52.105 +0000",1528312552.104947,0.434019,0.032045,0.386118,0.420304,-0.032040,-0.906817,0.000000,0.000000,0.000000,-1,0.000339,-0.000275,-0.004917,-0.002473,-0.004856,-0.002225
"2018-06-06 19:15:52.196 +0000",1528312552.195610,0.434133,0.031436,0.385811,0.420416,-0.031430,-0.906787,0.000000,0.000000,0.000000,-1,-0.003868,-0.002487,-0.003838,0.004679,0.001935,0.000552
"2018-06-06 19:15:52.286 +0000",1528312552.286272,0.433644,0.032091,0.386378,0.419964,-0.032086,-0.906973,0.000000,0.000000,0.000000,-1,0.003383,-0.009111,0.010109,0.002887,-0.004413,-0.003977
"2018-06-06 19:15:52.377 +0000",1528312552.376935,0.433478,0.031861,0.386476,0.419817,-0.031856,-0.907049,0.000000,0.000000,0.000000,-1,-0.012258,0.009582,-0.007007,-0.002672,-0.004613,-0.003961
"2018-06-06 19:15:52.468 +0000",1528312552.467597,0.435126,0.030879,0.386983,0.421323,-0.030875,-0.906385,0.000000,0.000000,0.000000,-1,-0.008197,0.009517,0.011269,0.003802,0.000037,-0.002444
"2018-06-06 19:15:52.558 +0000",1528312552.558260,0.435350,0.031341,0.388750,0.421520,-0.031336,-0.906277,0.000000,0.000000,0.000000,-1,0.003267,-0.008073,0.025175,0.003300,-0.003546,-0.002094
"2018-06-06 19:15:52.649 +0000",1528312552.648922,0.434703,0.032718,0.390604,0.420916,-0.032712,-0.906510,0.000000,0.000000,0.000000,-1,0.013744,0.001827,0.027331,-0.001452,-0.009143,0.006653
"2018-06-06 19:15:52.740 +0000",1528312552.739585,0.435430,0.033237,0.393337,0.421567,-0.033231,-0.906188,0.000000,0.000000,0.000000,-1,-0.016728,0.013817,0.027436,-0.021879,-0.005160,0.002974
"2018-06-06 19:15:52.830 +0000",1528312552.830247,0.437040,0.032769,0.395735,0.423032,-0.032763,-0.905522,0.000000,0.000000,0.000000,-1,-0.003969,0.016134,0.006976,-0.002867,0.004656,-0.000484
"2018-06-06 19:15:52.921 +0000",1528312552.920909,0.437955,0.033251,0.394037,0.423854,-0.033244,-0.905120,0.000000,0.000000,0.000000,-1,0.021616,0.003230,-0.040448,0.004537,-0.000920,0.000961
"2018-06-06 19:15:53.012 +0000",1528312553.011571,0.437844,0.032911,0.388160,0.423758,-0.032905,-0.905177,0.000000,0.000000,0.000000,-1,0.029260,-0.007573,-0.077069,0.004983,-0.003502,0.001048
"2018-06-06 19:15:53.102 +0000",1528312553.102233,0.437742,0.032534,0.380138,0.423671,-0.032528,-0.905232,0.000000,0.000000,0.000000,-1,0.033489,-0.002054,-0.081366,0.003239,-0.006916,0.000965
"2018-06-06 19:15:53.193 +0000",1528312553.192896,0.438056,0.031722,0.374843,0.423967,-0.031717,-0.905122,0.000000,0.000000,0.000000,-1,-0.000531,0.009710,-0.029622,0.000014,-0.005804,-0.002471
"2018-06-06 19:15:53.284 +0000",1528312553.283558,0.438569,0.031499,0.374398,0.424433,-0.031494,-0.904911,0.000000,0.000000,0.000000,-1,0.000199,-0.000348,0.013372,0.014806,-0.002045,0.004444
"2018-06-06 19:15:53.374 +0000",1528312553.374220,0.438174,0.032813,0.376060,0.424058,-0.032807,-0.905040,0.000000,0.000000,0.000000,-1,0.012689,-0.010261,0.029449,0.004668,-0.001113,-0.001149
"2018-06-06 19:15:53.465 +0000",1528312553.464883,0.437364,0.035029,0.378443,0.423293,-0.035021,-0.905316,0.000000,0.000000,0.000000,-1,0.002147,-0.004820,0.033792,-0.004607,-0.010633,0.002194
"2018-06-06 19:15:53.556 +0000",1528312553.555545,0.436797,0.035098,0.380734,0.422779,-0.035091,-0.905553,0.000000,0.000000,0.000000,-1,-0.022908,-0.001511,0.013422,-0.013447,-0.010930,-0.000789
"2018-06-06 19:15:53.646 +0000",1528312553.646208,0.437528,0.033052,0.381485,0.423470,-0.033046,-0.905307,0.000000,0.000000,0.000000,-1,-0.023743,0.015079,-0.016646,-0.007302,-0.000035,-0.000088
"2018-06-06 19:15:53.737 +0000",1528312553.736870,0.438554,0.030835,0.379632,0.424429,-0.030830,-0.904936,0.000000,0.000000,0.000000,-1,-0.005717,0.010829,-0.038213,-0.000174,0.002327,-0.001955
"2018-06-06 19:15:53.828 +0000",1528312553.827532,0.439499,0.029747,0.375924,0.425297,-0.029743,-0.904565,0.000000,0.000000,0.000000,-1,0.016335,0.007592,-0.037197,0.014186,0.003513,-0.001426
"2018-06-06 19:15:53.918 +0000",1528312553.918195,0.439973,0.030938,0.374884,0.425711,-0.030933,-0.904330,0.000000,0.000000,0.000000,-1,0.007498,-0.004751,0.020872,0.009088,-0.005215,0.000903
"2018-06-06 19:15:54.009 +0000",1528312554.008857,0.439289,0.031506,0.377074,0.425085,-0.031500,-0.904605,0.000000,0.000000,0.000000,-1,-0.009274,-0.013566,0.017658,-0.003012,-0.012796,0.005161
"2018-06-06 19:15:54.100 +0000",1528312554.099519,0.438939,0.030683,0.378453,0.424779,-0.030678,-0.904777,0.000000,0.000000,0.000000,-1,-0.020746,0.004020,0.004828,-0.011404,-0.002159,-0.001442
"2018-06-06 19:15:54.190 +0000",1528312554.190182,0.439599,0.029566,0.378836,0.425390,-0.029562,-0.904527,0.000000,0.000000,0.000000,-1,-0.010188,0.007374,-0.002716,-0.009421,-0.000651,-0.002715
"2018-06-06 19:15:54.281 +0000",1528312554.280844,0.440293,0.028521,0.378673,0.426031,-0.028518,-0.904259,0.000000,0.000000,0.000000,-1,-0.005934,0.004120,-0.009189,0.005564,0.000533,0.000496
"2018-06-06 19:15:54.372 +0000",1528312554.371506,0.440166,0.028126,0.377884,0.425921,-0.028122,-0.904323,0.000000,0.000000,0.000000,-1,0.004544,-0.003550,-0.004930,0.001096,-0.000458,-0.001347
"2018-06-06 19:15:54.462 +0000",1528312554.462169,0.439899,0.028275,0.378102,0.425678,-0.028271,-0.904433,0.000000,0.000000,0.000000,-1,-0.001860,-0.000328,0.008002,0.001309,-0.002567,-0.002702
"2018-06-06 19:15:54.553 +0000",1528312554.552831,0.439624,0.028444,0.378866,0.425427,-0.028440,-0.904546,0.000000,0.000000,0.000000,-1,0.000269,-0.003602,0.004761,0.000675,-0.002917,-0.000590
"2018-06-06 19:15:54.643 +0000",1528312554.643493,0.439295,0.028601,0.378951,0.425127,-0.028597,-0.904682,0.000000,0.000000,0.000000,-1,0.000315,-0.000282,-0.001684,-0.003130,-0.003721,-0.000348
"2018-06-06 19:15:54.734 +0000",1528312554.734156,0.439375,0.028466,0.378829,0.425202,-0.028462,-0.904651,0.000000,0.000000,0.000000,-1,-0.000723,0.004116,-0.003820,-0.003128,-0.001277,-0.000958
"2018-06-06 19:15:54.825 +0000",1528312554.824818,0.439723,0.028492,0.378937,0.425516,-0.028488,-0.904502,0.000000,0.000000,0.000000,-1,0.000279,0.002994,0.002629,0.003271,-0.000290,-0.001565
"2018-06-06 19:15:54.915 +0000",1528312554.915480,0.440027,0.028748,0.379204,0.425788,-0.028744,-0.904366,0.000000,0.000000,0.000000,-1,-0.002910,0.007358,0.006951,0.003717,-0.004490,-0.002067
"2018-06-06 19:15:55.006 +0000",1528312555.006143,0.440111,0.028817,0.380002,0.425863,-0.028813,-0.904329,0.000000,0.000000,0.000000,-1,-0.002893,-0.001420,0.005850,0.000849,-0.004818,0.002260
"2018-06-06 19:15:55.097 +0000",1528312555.096805,0.440057,0.028793,0.380561,0.425814,-0.028789,-0.904352,0.000000,0.000000,0.000000,-1,-0.001851,-0.001421,0.006923,-0.003771,-0.002583,-0.000830
"2018-06-06 19:15:55.187 +0000",1528312555.187467,0.440251,0.028808,0.381523,0.425990,-0.028804,-0.904269,0.000000,0.000000,0.000000,-1,-0.002923,0.004055,0.009093,0.001760,-0.002156,-0.001630
"2018-06-06 19:15:55.278 +0000",1528312555.278129,0.440239,0.029001,0.382456,0.425976,-0.028997,-0.904269,0.000000,0.000000,0.000000,-1,-0.006102,-0.001460,0.013387,-0.000180,-0.002298,-0.002210
"2018-06-06 19:15:55.369 +0000",1528312555.368792,0.440205,0.028658,0.383453,0.425950,-0.028654,-0.904293,0.000000,0.000000,0.000000,-1,-0.008129,-0.000328,0.003714,-0.003923,-0.001375,-0.002781
"2018-06-06 19:15:55.459 +0000",1528312555.459454,0.440303,0.028541,0.383463,0.426040,-0.028537,-0.904254,0.000000,0.000000,0.000000,-1,0.001371,0.001921,-0.002755,0.002396,-0.001203,-0.003247
"2018-06-06 19:15:55.550 +0000",1528312555.550116,0.440307,0.028771,0.383005,0.426040,-0.028767,-0.904247,0.000000,0.000000,0.000000,-1,0.001381,0.000828,-0.003834,-0.002975,-0.002193,-0.001912
"2018-06-06 19:15:55.641 +0000",1528312555.640779,0.440548,0.028787,0.382619,0.426258,-0.028783,-0.904143,0.000000,0.000000,0.000000,-1,0.003470,0.004123,-0.002754,0.001903,-0.005550,-0.000657
"2018-06-06 19:15:55.731 +0000",1528312555.731441,0.440590,0.028755,0.382326,0.426297,-0.028751,-0.904126,0.000000,0.000000,0.000000,-1,-0.002834,-0.002486,-0.001683,-0.002011,-0.006726,-0.002185
"2018-06-06 19:15:55.822 +0000",1528312555.822103,0.440629,0.028462,0.382663,0.426336,-0.028458,-0.904117,0.000000,0.000000,0.000000,-1,-0.007086,-0.001427,0.004784,-0.003072,-0.002808,-0.001858
"2018-06-06 19:15:55.913 +0000",1528312555.912765,0.440654,0.028307,0.383015,0.426360,-0.028303,-0.904110,0.000000,0.000000,0.000000,-1,-0.002897,0.002971,0.005863,-0.001373,-0.000429,-0.002750
"2018-06-06 19:15:56.003 +0000",1528312556.003429,0.440804,0.028716,0.382997,0.426490,-0.028712,-0.904036,0.000000,0.000000,0.000000,-1,0.005514,0.002999,0.004768,0.000283,-0.005544,0.000182
"2018-06-06 19:15:56.094 +0000",1528312556.094091,0.440793,0.028752,0.383105,0.426480,-0.028748,-0.904040,0.000000,0.000000,0.000000,-1,-0.000742,-0.002485,-0.000612,0.001376,-0.003677,-0.000669
"2018-06-06 19:15:56.185 +0000",1528312556.184753,0.440625,0.028678,0.383076,0.426329,-0.028675,-0.904113,0.000000,0.000000,0.000000,-1,-0.000733,-0.002480,-0.001688,-0.002074,-0.003201,-0.002823
"2018-06-06 19:15:56.275 +0000",1528312556.275415,0.440633,0.028597,0.382755,0.426338,-0.028593,-0.904112,0.000000,0.000000,0.000000,-1,0.001370,0.003019,-0.002752,0.001504,-0.001634,-0.001039
"2018-06-06 19:15:56.366 +0000",1528312556.366078,0.440552,0.028638,0.382818,0.426264,-0.028634,-0.904145,0.000000,0.000000,0.000000,-1,-0.004962,-0.000310,0.001555,0.000722,-0.003837,-0.003234
"2018-06-06 19:15:56.457 +0000",1528312556.456740,0.440477,0.028494,0.382649,0.426198,-0.028490,-0.904181,0.000000,0.000000,0.000000,-1,0.005587,-0.003549,-0.003854,-0.000829,-0.002928,-0.001657
"2018-06-06 19:15:56.547 +0000",1528312556.547402,0.440460,0.028495,0.382287,0.426183,-0.028491,-0.904188,0.000000,0.000000,0.000000,-1,-0.001754,0.000831,-0.005976,0.000224,-0.003964,-0.001741
"2018-06-06 19:15:56.638 +0000",1528312556.638064,0.440390,0.028336,0.381933,0.426121,-0.028332,-0.904222,0.000000,0.000000,0.000000,-1,0.001385,-0.003560,-0.003844,0.000805,-0.003818,-0.001921
"2018-06-06 19:15:56.729 +0000",1528312556.728726,0.440553,0.027830,0.381426,0.426275,-0.027826,-0.904166,0.000000,0.000000,0.000000,-1,-0.003822,0.001941,-0.010270,-0.003866,-0.001608,-0.000452
"2018-06-06 19:15:56.819 +0000",1528312556.819389,0.440818,0.027750,0.380796,0.426515,-0.027746,-0.904055,0.000000,0.000000,0.000000,-1,0.005598,0.001949,-0.005989,0.003386,-0.002710,-0.001173
"2018-06-06 19:15:56.910 +0000",1528312556.910051,0.440728,0.027959,0.380452,0.426432,-0.027956,-0.904088,0.000000,0.000000,0.000000,-1,0.000312,-0.005772,-0.000621,0.002844,-0.005171,-0.000575
"2018-06-06 19:15:57.001 +0000",1528312557.000713,0.440395,0.027810,0.380291,0.426132,-0.027807,-0.904234,0.000000,0.000000,0.000000,-1,-0.002833,-0.003581,-0.001684,-0.000732,-0.004832,-0.001681
"2018-06-06 19:15:57.091 +0000",1528312557.091375,0.440203,0.027468,0.380220,0.425962,-0.027465,-0.904324,0.000000,0.000000,0.000000,-1,-0.002837,0.000810,-0.001671,-0.002088,-0.001649,-0.001300
"2018-06-06 19:15:57.182 +0000",1528312557.182038,0.440232,0.027442,0.379980,0.425989,-0.027438,-0.904312,0.000000,0.000000,0.000000,-1,0.000314,0.000819,-0.001678,0.000479,-0.003720,-0.000412
"2018-06-06 19:15:57.273 +0000",1528312557.272700,0.440364,0.027507,0.380285,0.426107,-0.027504,-0.904254,0.000000,0.000000,0.000000,-1,0.001289,0.001879,0.008004,0.001124,-0.002724,-0.001614
"2018-06-06 19:15:57.363 +0000",1528312557.363362,0.440323,0.027774,0.380774,0.426068,-0.027770,-0.904265,0.000000,0.000000,0.000000,-1,-0.001841,-0.002512,0.005847,-0.000881,-0.004319,-0.000490
"2018-06-06 19:15:57.454 +0000",1528312557.454024,0.440372,0.027897,0.381089,0.426110,-0.027893,-0.904241,0.000000,0.000000,0.000000,-1,-0.002870,0.000862,0.002632,-0.002953,-0.004883,0.000112
"2018-06-06 19:15:57.545 +0000",1528312557.544686,0.440792,0.027779,0.381270,0.426492,-0.027775,-0.904065,0.000000,0.000000,0.000000,-1,0.002413,0.003090,-0.001676,-0.000497,-0.003505,-0.000385
"2018-06-06 19:15:57.635 +0000",1528312557.635348,0.440951,0.027864,0.381349,0.426634,-0.027861,-0.903995,0.000000,0.000000,0.000000,-1,-0.000778,0.000863,0.003703,-0.000899,-0.004412,0.000034
"2018-06-06 19:15:57.726 +0000",1528312557.726011,0.441006,0.027994,0.381667,0.426683,-0.027990,-0.903968,0.000000,0.000000,0.000000,-1,-0.002887,0.000853,0.004784,0.000045,-0.003901,0.000053
"2018-06-06 19:15:57.817 +0000",1528312557.816673,0.441103,0.027981,0.381709,0.426770,-0.027978,-0.903927,0.000000,0.000000,0.000000,-1,0.000312,0.003084,-0.001671,-0.000134,-0.004127,-0.001438
"2018-06-06 19:15:57.907 +0000",1528312557.907335,0.441108,0.027829,0.381693,0.426776,-0.027826,-0.903929,0.000000,0.000000,0.000000,-1,-0.001797,0.003074,-0.000591,0.000164,-0.003516,-0.001039
"2018-06-06 19:15:57.998 +0000",1528312557.997996,0.441156,0.027788,0.381655,0.426820,-0.027785,-0.903910,0.000000,0.000000,0.000000,-1,0.001364,0.000892,-0.001680,0.000121,-0.002229,-0.000479
"2018-06-06 19:15:58.089 +0000",1528312558.088658,0.441136,0.027786,0.381733,0.426802,-0.027783,-0.903918,0.000000,0.000000,0.000000,-1,-0.000777,-0.000235,0.003700,0.000917,-0.001972,0.000506
"2018-06-06 19:15:58.179 +0000",1528312558.179320,0.441015,0.027970,0.381885,0.426690,-0.027967,-0.903965,0.000000,0.000000,0.000000,-1,0.002377,-0.002421,0.003686,0.001242,-0.004321,-0.002025
"2018-06-06 19:15:58.270 +0000",1528312558.269983,0.440925,0.027847,0.382197,0.426610,-0.027843,-0.904007,0.000000,0.000000,0.000000,-1,-0.002852,-0.000227,0.000478,0.000849,-0.002675,-0.000870
"2018-06-06 19:15:58.361 +0000",1528312558.360645,0.441135,0.027635,0.382524,0.426803,-0.027632,-0.903922,0.000000,0.000000,0.000000,-1,-0.004995,0.008531,0.004811,0.000748,-0.000994,-0.001839
"2018-06-06 19:15:58.451 +0000",1528312558.451307,0.441408,0.027625,0.382862,0.427050,-0.027621,-0.903806,0.000000,0.000000,0.000000,-1,-0.002425,0.004137,0.004481,-0.000902,-0.003034,-0.000033
"2018-06-06 19:15:58.542 +0000",1528312558.541969,0.441524,0.027709,0.383164,0.427153,-0.027706,-0.903755,0.000000,0.000000,0.000000,-1,-0.002423,0.001941,0.004475,-0.000808,-0.004185,-0.001656
"2018-06-06 19:15:58.633 +0000",1528312558.632631,0.441566,0.027759,0.383049,0.427191,-0.027755,-0.903735,0.000000,0.000000,0.000000,-1,0.003934,-0.003503,-0.002010,-0.000814,-0.002503,-0.000928
"2018-06-06 19:15:58.723 +0000",1528312558.723293,0.441502,0.027840,0.382996,0.427132,-0.027836,-0.903760,0.000000,0.000000,0.000000,-1,-0.002391,0.003057,0.000175,-0.001153,-0.005046,-0.001482
"2018-06-06 19:15:58.814 +0000",1528312558.813955,0.441535,0.027764,0.382890,0.427163,-0.027760,-0.903748,0.000000,0.000000,0.000000,-1,0.000787,0.000884,-0.003065,0.002860,-0.002956,-0.000793
"2018-06-06 19:15:58.905 +0000",1528312558.904618,0.441457,0.027874,0.382668,0.427092,-0.027870,-0.903779,0.000000,0.000000,0.000000,-1,0.000772,-0.001321,-0.000921,0.000139,-0.002586,-0.001541
"2018-06-06 19:15:58.995 +0000",1528312558.995281,0.441381,0.027937,0.382709,0.427021,-0.027934,-0.903810,0.000000,0.000000,0.000000,-1,0.006003,-0.004613,0.002285,0.000576,0.000987,-0.000075
"2018-06-06 19:15:59.086 +0000",1528312559.085943,0.440835,0.029040,0.382176,0.426515,-0.029036,-0.904014,0.000000,0.000000,0.000000,-1,0.015515,-0.005653,-0.005269,-0.004106,0.003752,-0.003243
"2018-06-06 19:15:59.177 +0000",1528312559.176605,0.440964,0.029807,0.380130,0.426622,-0.029803,-0.903939,0.000000,0.000000,0.000000,-1,0.008243,0.013043,-0.018106,-0.015580,-0.019773,-0.001716
"2018-06-06 19:15:59.267 +0000",1528312559.267267,0.442955,0.028230,0.378534,0.428440,-0.028227,-0.903129,0.000000,0.000000,0.000000,-1,-0.015869,0.016296,-0.024495,0.025723,-0.005953,0.003257
"2018-06-06 19:15:59.358 +0000",1528312559.357929,0.442324,0.027416,0.377712,0.427880,-0.027413,-0.903420,0.000000,0.000000,0.000000,-1,0.004903,-0.022216,0.010841,0.007636,0.008522,-0.003547
"2018-06-06 19:15:59.449 +0000",1528312559.448591,0.440842,0.028762,0.380173,0.426525,-0.028758,-0.904019,0.000000,0.000000,0.000000,-1,-0.001597,-0.004766,0.034574,-0.019649,-0.007039,-0.001942
"2018-06-06 19:15:59.539 +0000",1528312559.539253,0.441302,0.029121,0.381505,0.426936,-0.029117,-0.903813,0.000000,0.000000,0.000000,-1,-0.003439,0.009648,-0.000876,-0.002589,-0.008328,0.001362
"2018-06-06 19:15:59.630 +0000",1528312559.629915,0.442287,0.028317,0.381518,0.427836,-0.028314,-0.903413,0.000000,0.000000,0.000000,-1,-0.008661,0.012945,-0.005157,-0.002848,0.000680,0.005403
"2018-06-06 19:15:59.721 +0000",1528312559.720578,0.442346,0.028825,0.381539,0.427883,-0.028821,-0.903374,0.000000,0.000000,0.000000,-1,0.011142,-0.007952,0.017325,0.007343,0.000486,-0.004432
"2018-06-06 19:15:59.811 +0000",1528312559.811240,0.440109,0.030182,0.383069,0.425844,-0.030177,-0.904293,0.000000,0.000000,0.000000,-1,-0.001559,-0.019023,0.031306,0.038923,0.000560,0.006908
"2018-06-06 19:15:59.902 +0000",1528312559.901902,0.436446,0.031204,0.386452,0.422516,-0.031199,-0.905819,0.000000,0.000000,0.000000,-1,0.003597,-0.022356,0.044192,0.004120,-0.005132,-0.008610
"2018-06-06 19:15:59.993 +0000",1528312559.992564,0.435728,0.032485,0.390395,0.421848,-0.032479,-0.906085,0.000000,0.000000,0.000000,-1,-0.015320,-0.002645,0.043217,-0.039234,0.003960,-0.011548
"2018-06-06 19:16:00.083 +0000",1528312560.083226,0.437120,0.032551,0.392658,0.423108,-0.032545,-0.905495,0.000000,0.000000,0.000000,-1,-0.003455,0.026115,-0.000828,-0.004239,0.000684,0.001213
"2018-06-06 19:16:00.174 +0000",1528312560.173888,0.439149,0.031932,0.391256,0.424953,-0.031926,-0.904652,0.000000,0.000000,0.000000,-1,-0.002247,0.033892,-0.022321,-0.001201,0.004750,-0.002666
"2018-06-06 19:16:00.265 +0000",1528312560.264550,0.440788,0.032693,0.389406,0.426424,-0.032687,-0.903932,0.000000,0.000000,0.000000,-1,0.027097,-0.001208,-0.009583,0.021039,-0.005353,-0.000670
"2018-06-06 19:16:00.355 +0000",1528312560.355212,0.440284,0.033918,0.387908,0.425951,-0.033911,-0.904110,0.000000,0.000000,0.000000,-1,0.013437,-0.012233,-0.007432,0.003233,-0.009988,0.003506
"2018-06-06 19:16:00.446 +0000",1528312560.445874,0.439370,0.033686,0.387075,0.425128,-0.033680,-0.904506,0.000000,0.000000,0.000000,-1,-0.007591,0.000879,-0.006269,-0.009189,-0.001705,-0.000737
"2018-06-06 19:16:00.537 +0000",1528312560.536536,0.439606,0.033043,0.386946,0.425351,-0.033037,-0.904425,0.000000,0.000000,0.000000,-1,-0.002371,0.008564,-0.003032,-0.012082,0.000795,-0.003412
"2018-06-06 19:16:00.627 +0000",1528312560.627198,0.440146,0.033317,0.386618,0.425835,-0.033311,-0.904187,0.000000,0.000000,0.000000,-1,0.007090,-0.000192,-0.003079,0.012428,-0.008636,-0.004962
"2018-06-06 19:16:00.718 +0000",1528312560.717860,0.440205,0.033007,0.386541,0.425893,-0.033001,-0.904171,0.000000,0.000000,0.000000,-1,-0.009731,-0.001345,-0.000892,0.002940,-0.003314,-0.000324
"2018-06-06 19:16:00.809 +0000",1528312560.808522,0.439955,0.032649,0.386925,0.425671,-0.032643,-0.904289,0.000000,0.000000,0.000000,-1,-0.000309,-0.003533,0.003382,-0.002774,0.000187,-0.002083
"2018-06-06 19:16:00.899 +0000",1528312560.899185,0.439938,0.032684,0.386974,0.425656,-0.032679,-0.904295,0.000000,0.000000,0.000000,-1,-0.003424,0.001970,-0.001973,-0.006268,-0.002951,-0.001512
"2018-06-06 19:16:00.990 +0000",1528312560.989847,0.440331,0.032529,0.386716,0.426014,-0.032523,-0.904132,0.000000,0.000000,0.000000,-1,-0.001316,0.003078,-0.003050,-0.001362,-0.003930,0.000018
"2018-06-06 19:16:01.081 +0000",1528312561.080509,0.440425,0.032421,0.386642,0.426100,-0.032415,-0.904095,0.000000,0.000000,0.000000,-1,-0.001336,-0.001327,0.000164,0.002138,-0.002833,-0.000171
"2018-06-06 19:16:01.171 +0000",1528312561.171171,0.440356,0.032237,0.386876,0.426040,-0.032232,-0.904130,0.000000,0.000000,0.000000,-1,-0.004489,0.000860,0.000178,-0.001464,-0.002314,-0.000426
"2018-06-06 19:16:01.262 +0000",1528312561.261833,0.440169,0.032145,0.386936,0.425873,-0.032140,-0.904212,0.000000,0.000000,0.000000,-1,-0.001325,-0.004615,-0.000921,-0.001175,-0.002712,-0.002587
"2018-06-06 19:16:01.352 +0000",1528312561.352495,0.440349,0.032058,0.386843,0.426036,-0.032053,-0.904138,0.000000,0.000000,0.000000,-1,0.000785,0.003084,-0.003055,-0.000881,-0.001486,-0.000754
"2018-06-06 19:16:01.443 +0000",1528312561.443157,0.440349,0.032135,0.386509,0.426035,-0.032129,-0.904136,0.000000,0.000000,0.000000,-1,0.001818,0.004173,-0.000905,0.001150,-0.001654,-0.000008
"2018-06-06 19:16:01.534 +0000",1528312561.533819,0.440312,0.032075,0.386522,0.426002,-0.032069,-0.904154,0.000000,0.000000,0.000000,-1,-0.002396,-0.000239,0.001243,-0.001747,-0.001347,-0.001715
"2018-06-06 19:16:01.624 +0000",1528312561.624481,0.440266,0.032185,0.386468,0.425959,-0.032179,-0.904170,0.000000,0.000000,0.000000,-1,0.000774,-0.002417,-0.000922,-0.000773,-0.003602,-0.001638
"2018-06-06 19:16:01.715 +0000",1528312561.715143,0.440170,0.032050,0.386440,0.425875,-0.032045,-0.904214,0.000000,0.000000,0.000000,-1,-0.002403,-0.001341,0.002315,-0.002611,-0.004424,-0.001135
"2018-06-06 19:16:01.806 +0000",1528312561.805805,0.440097,0.031955,0.386406,0.425810,-0.031950,-0.904248,0.000000,0.000000,0.000000,-1,-0.000298,0.001962,0.001244,0.000521,-0.000140,-0.000293
"2018-06-06 19:16:01.896 +0000",1528312561.896467,0.440001,0.032126,0.386373,0.425721,-0.032120,-0.904284,0.000000,0.000000,0.000000,-1,0.000754,0.000868,0.001239,-0.002060,-0.002364,-0.001538
"2018-06-06 19:16:01.987 +0000",1528312561.987129,0.439905,0.032351,0.386388,0.425630,-0.032345,-0.904319,0.000000,0.000000,0.000000,-1,0.001806,-0.001325,0.001230,-0.000581,-0.003559,-0.000024
"2018-06-06 19:16:02.078 +0000",1528312562.077791,0.439743,0.032423,0.386296,0.425483,-0.032417,-0.904386,0.000000,0.000000,0.000000,-1,-0.000277,-0.002420,-0.000920,-0.001884,-0.002541,-0.001041
"2018-06-06 19:16:02.168 +0000",1528312562.168453,0.439675,0.032209,0.386270,0.425425,-0.032204,-0.904421,0.000000,0.000000,0.000000,-1,-0.005521,-0.001332,-0.001980,-0.000300,-0.001900,-0.001830
"2018-06-06 19:16:02.259 +0000",1528312562.259115,0.439416,0.032126,0.386066,0.425192,-0.032121,-0.904533,0.000000,0.000000,0.000000,-1,0.001835,-0.005702,-0.002010,0.000467,-0.001510,0.000053
"2018-06-06 19:16:02.350 +0000",1528312562.349777,0.439029,0.032226,0.385705,0.424840,-0.032221,-0.904695,0.000000,0.000000,0.000000,-1,-0.000252,-0.002406,-0.004147,-0.003728,-0.001394,-0.000731
"2018-06-06 19:16:02.440 +0000",1528312562.440439,0.438998,0.032255,0.385485,0.424812,-0.032250,-0.904707,0.000000,0.000000,0.000000,-1,0.000704,0.001137,-0.001457,-0.001472,-0.002174,-0.000811
"2018-06-06 19:16:02.531 +0000",1528312562.531101,0.438982,0.032227,0.385075,0.424797,-0.032222,-0.904715,0.000000,0.000000,0.000000,-1,0.001781,-0.001042,-0.004693,-0.000893,-0.001622,-0.001764
"2018-06-06 19:16:02.622 +0000",1528312562.621763,0.438831,0.032136,0.384706,0.424662,-0.032131,-0.904782,0.000000,0.000000,0.000000,-1,0.000689,0.000030,0.000691,-0.000910,-0.001484,-0.003727
"2018-06-06 19:16:02.712 +0000",1528312562.712425,0.438941,0.032042,0.384590,0.424763,-0.032036,-0.904737,0.000000,0.000000,0.000000,-1,-0.000354,0.000032,-0.000382,-0.001134,-0.002434,0.000547
"2018-06-06 19:16:02.803 +0000",1528312562.803087,0.438884,0.032090,0.384640,0.424710,-0.032085,-0.904760,0.000000,0.000000,0.000000,-1,0.003824,-0.001068,0.002832,-0.001615,0.000087,-0.002008
"2018-06-06 19:16:02.894 +0000",1528312562.893749,0.438814,0.032443,0.384742,0.424642,-0.032438,-0.904780,0.000000,0.000000,0.000000,-1,0.002780,0.001129,0.001765,-0.002844,-0.002215,-0.000372
"2018-06-06 19:16:02.984 +0000",1528312562.984411,0.438854,0.032619,0.384900,0.424676,-0.032613,-0.904758,0.000000,0.000000,0.000000,-1,-0.001423,0.002215,0.001778,-0.000482,-0.002146,-0.001019
"2018-06-06 19:16:03.075 +0000",1528312563.075073,0.438895,0.032689,0.385186,0.424712,-0.032683,-0.904738,0.000000,0.000000,0.000000,-1,-0.000369,-0.001075,0.001766,-0.000472,-0.001115,-0.001039
"2018-06-06 19:16:03.166 +0000",1528312563.165735,0.438880,0.032781,0.385270,0.424698,-0.032775,-0.904742,0.000000,0.000000,0.000000,-1,0.001758,-0.002153,-0.001469,-0.001450,-0.002930,-0.000913
"2018-06-06 19:16:03.256 +0000",1528312563.256397,0.438798,0.032793,0.385212,0.424623,-0.032787,-0.904776,0.000000,0.000000,0.000000,-1,0.002773,0.000027,0.002837,-0.002198,0.004161,-0.001062
"2018-06-06 19:16:03.347 +0000",1528312563.347059,0.438544,0.033622,0.385823,0.424382,-0.033616,-0.904859,0.000000,0.000000,0.000000,-1,0.000597,0.001078,0.012526,-0.002614,-0.003005,-0.002200
"2018-06-06 19:16:03.438 +0000",1528312563.437721,0.438280,0.034048,0.385828,0.424136,-0.034041,-0.904958,0.000000,0.000000,0.000000,-1,0.008060,-0.005394,-0.006954,0.003934,-0.004976,-0.003031
"2018-06-06 19:16:03.528 +0000",1528312563.528383,0.438304,0.033922,0.385023,0.424160,-0.033916,-0.904952,0.000000,0.000000,0.000000,-1,-0.006658,0.000050,-0.005829,0.001178,-0.000859,-0.001009
"2018-06-06 19:16:03.619 +0000",1528312563.619045,0.438937,0.033380,0.385511,0.424741,-0.033373,-0.904699,0.000000,0.000000,0.000000,-1,-0.003601,0.003302,0.006005,0.000262,0.000216,-0.001078
"2018-06-06 19:16:03.710 +0000",1528312563.709707,0.439440,0.033388,0.385640,0.425196,-0.033381,-0.904486,0.000000,0.000000,0.000000,-1,0.006966,0.005563,-0.002617,-0.003229,0.000377,-0.001764
"2018-06-06 19:16:03.800 +0000",1528312563.800369,0.439843,0.033531,0.384999,0.425558,-0.033524,-0.904310,0.000000,0.000000,0.000000,-1,0.001689,0.006632,0.000625,-0.002814,-0.001601,-0.000720
"2018-06-06 19:16:03.891 +0000",1528312563.891031,0.440200,0.034013,0.385693,0.425874,-0.034007,-0.904143,0.000000,0.000000,0.000000,-1,0.000527,0.002175,0.015673,0.007994,-0.002935,-0.001161
"2018-06-06 19:16:03.982 +0000",1528312563.981692,0.439691,0.034714,0.387186,0.425403,-0.034707,-0.904338,0.000000,0.000000,0.000000,-1,-0.002643,-0.012123,0.019942,0.000897,-0.005179,-0.000554
"2018-06-06 19:16:04.072 +0000",1528312564.072354,0.438798,0.034673,0.388554,0.424596,-0.034666,-0.904719,0.000000,0.000000,0.000000,-1,-0.009869,-0.006582,0.002764,-0.013051,-0.007204,0.000514
"2018-06-06 19:16:04.163 +0000",1528312564.163016,0.439055,0.033392,0.388301,0.424847,-0.033385,-0.904649,0.000000,0.000000,0.000000,-1,-0.011860,0.008849,-0.013321,-0.008160,0.003524,-0.003462
"2018-06-06 19:16:04.254 +0000",1528312564.253678,0.439948,0.032732,0.387500,0.425665,-0.032726,-0.904289,0.000000,0.000000,0.000000,-1,0.002812,0.007774,-0.009055,0.006174,0.002834,-0.001549
"2018-06-06 19:16:04.344 +0000",1528312564.344340,0.440056,0.032926,0.387018,0.425759,-0.032920,-0.904237,0.000000,0.000000,0.000000,-1,0.004848,-0.002141,0.000592,0.006629,-0.001611,0.000063
"2018-06-06 19:16:04.435 +0000",1528312564.435001,0.439586,0.033367,0.387155,0.425328,-0.033361,-0.904424,0.000000,0.000000,0.000000,-1,-0.000450,-0.005476,0.007048,-0.004003,-0.005137,-0.000163
"2018-06-06 19:16:04.526 +0000",1528312564.525663,0.439374,0.033557,0.387677,0.425133,-0.033551,-0.904509,0.000000,0.000000,0.000000,-1,0.000605,-0.001078,0.005983,-0.004647,0.000348,-0.001162
"2018-06-06 19:16:04.616 +0000",1528312564.616325,0.439468,0.034024,0.388036,0.425212,-0.034017,-0.904454,0.000000,0.000000,0.000000,-1,-0.000452,0.005506,0.006004,-0.007167,-0.002284,-0.002803
"2018-06-06 19:16:04.707 +0000",1528312564.706987,0.440030,0.034047,0.388174,0.425719,-0.034040,-0.904215,0.000000,0.000000,0.000000,-1,-0.000394,0.005538,-0.001525,0.001160,-0.002184,-0.000174
"2018-06-06 19:16:04.798 +0000",1528312564.797649,0.440285,0.033747,0.387857,0.425954,-0.033740,-0.904115,0.000000,0.000000,0.000000,-1,-0.002476,0.003345,-0.003678,-0.000936,-0.001385,-0.001463
"2018-06-06 19:16:04.888 +0000",1528312564.888311,0.440275,0.033500,0.387595,0.425949,-0.033494,-0.904127,0.000000,0.000000,0.000000,-1,0.001746,-0.001025,-0.005852,-0.000885,0.000276,-0.001314
"2018-06-06 19:16:04.979 +0000",1528312564.978974,0.440057,0.033591,0.386994,0.425750,-0.033585,-0.904217,0.000000,0.000000,0.000000,-1,0.005940,-0.002115,-0.004789,-0.003952,-0.000457,-0.001941
"2018-06-06 19:16:05.070 +0000",1528312565.069636,0.440189,0.033647,0.386423,0.425870,-0.033640,-0.904159,0.000000,0.000000,0.000000,-1,0.002776,0.002262,-0.003693,-0.000394,-0.000173,-0.000977
"2018-06-06 19:16:05.160 +0000",1528312565.160298,0.440350,0.033595,0.385792,0.426016,-0.033589,-0.904092,0.000000,0.000000,0.000000,-1,-0.000359,0.003360,-0.005834,-0.001700,-0.000301,0.000024
"2018-06-06 19:16:05.251 +0000",1528312565.250960,0.440324,0.033583,0.385233,0.425992,-0.033576,-0.904103,0.000000,0.000000,0.000000,-1,0.000704,-0.001023,-0.006925,0.000659,-0.000466,-0.002849
"2018-06-06 19:16:05.342 +0000",1528312565.341622,0.440536,0.033319,0.384438,0.426187,-0.033313,-0.904021,0.000000,0.000000,0.000000,-1,0.002845,0.000103,-0.012305,-0.004022,-0.000027,-0.001649
"2018-06-06 19:16:05.432 +0000",1528312565.432284,0.440698,0.033236,0.383305,0.426336,-0.033230,-0.903954,0.000000,0.000000,0.000000,-1,0.005976,0.003396,-0.010151,-0.000783,0.000774,-0.002067
"2018-06-06 19:16:05.523 +0000",1528312565.522946,0.440853,0.033369,0.382031,0.426473,-0.033363,-0.903885,0.000000,0.000000,0.000000,-1,0.007036,0.002308,-0.011230,-0.001775,-0.000329,-0.001023
"2018-06-06 19:16:05.614 +0000",1528312565.613608,0.440937,0.033401,0.380758,0.426549,-0.033395,-0.903848,0.000000,0.000000,0.000000,-1,0.007064,-0.000972,-0.014467,-0.001409,-0.000633,-0.001426
"2018-06-06 19:16:05.704 +0000",1528312565.704270,0.441068,0.033417,0.379080,0.426667,-0.033410,-0.903791,0.000000,0.000000,0.000000,-1,0.006034,0.003430,-0.017679,-0.002412,-0.002082,-0.000673
"2018-06-06 19:16:05.795 +0000",1528312565.794932,0.441193,0.033351,0.377574,0.426781,-0.033345,-0.903740,0.000000,0.000000,0.000000,-1,0.004936,0.001204,-0.011229,-0.000343,-0.001918,-0.002174
"2018-06-06 19:16:05.886 +0000",1528312565.885594,0.441299,0.033513,0.377064,0.426874,-0.033507,-0.903690,0.000000,0.000000,0.000000,-1,0.003786,0.002245,0.001685,0.000219,-0.001115,-0.001553
"2018-06-06 19:16:05.976 +0000",1528312565.976254,0.441186,0.033757,0.377366,0.426768,-0.033750,-0.903731,0.000000,0.000000,0.000000,-1,-0.000436,-0.002172,0.004908,-0.003337,-0.001772,-0.001970
"2018-06-06 19:16:06.067 +0000",1528312566.066916,0.441472,0.033650,0.378130,0.427029,-0.033644,-0.903612,0.000000,0.000000,0.000000,-1,-0.006731,0.007700,0.002800,0.002552,0.000227,-0.001601
"2018-06-06 19:16:06.158 +0000",1528312566.157578,0.441634,0.033619,0.378434,0.427176,-0.033612,-0.903543,0.000000,0.000000,0.000000,-1,0.001697,-0.001050,0.000604,-0.003592,0.000379,-0.000830
"2018-06-06 19:16:06.248 +0000",1528312566.248240,0.441571,0.033869,0.378891,0.427116,-0.033862,-0.903563,0.000000,0.000000,0.000000,-1,-0.001497,0.000016,0.005993,-0.001945,-0.001660,-0.003252
"2018-06-06 19:16:06.339 +0000",1528312566.338902,0.441790,0.033868,0.379130,0.427313,-0.033861,-0.903469,0.000000,0.000000,0.000000,-1,-0.000385,0.004447,-0.002602,0.001963,-0.000822,-0.000995
"2018-06-06 19:16:06.430 +0000",1528312566.429564,0.441837,0.033674,0.378812,0.427358,-0.033667,-0.903455,0.000000,0.000000,0.000000,-1,-0.001414,0.000062,-0.004764,-0.000799,-0.002099,-0.005862
"2018-06-06 19:16:06.520 +0000",1528312566.520226,0.442124,0.033313,0.378624,0.427622,-0.033307,-0.903344,0.000000,0.000000,0.000000,-1,-0.002470,0.005200,-0.004744,-0.000315,-0.000705,-0.001991
"2018-06-06 19:16:06.611 +0000",1528312566.610888,0.442366,0.033279,0.377886,0.427842,-0.033273,-0.903241,0.000000,0.000000,0.000000,-1,0.002824,0.004140,-0.010137,-0.004227,-0.001181,-0.002780
"2018-06-06 19:16:06.702 +0000",1528312566.701550,0.442586,0.033176,0.376833,0.428042,-0.033170,-0.903150,0.000000,0.000000,0.000000,-1,0.003876,0.003045,-0.010143,-0.001086,-0.000705,-0.002581
"2018-06-06 19:16:06.792 +0000",1528312566.792212,0.442904,0.033062,0.375804,0.428331,-0.033056,-0.903017,0.000000,0.000000,0.000000,-1,0.004933,0.004150,-0.011218,-0.001833,-0.000086,-0.000532
"2018-06-06 19:16:06.883 +0000",1528312566.882874,0.443182,0.032901,0.374805,0.428584,-0.032895,-0.902903,0.000000,0.000000,0.000000,-1,0.001749,0.004123,-0.006908,-0.000835,-0.002032,0.000071
"2018-06-06 19:16:06.974 +0000",1528312566.973537,0.443231,0.032815,0.374490,0.428630,-0.032809,-0.902884,0.000000,0.000000,0.000000,-1,0.000653,-0.000298,-0.000465,-0.003337,-0.001111,-0.001916
"2018-06-06 19:16:07.064 +0000",1528312567.064198,0.443079,0.033048,0.374869,0.428489,-0.033042,-0.902943,0.000000,0.000000,0.000000,-1,-0.001511,-0.002535,0.008139,0.000100,-0.000603,-0.001385
"2018-06-06 19:16:07.155 +0000",1528312567.154860,0.442840,0.033313,0.375231,0.428270,-0.033307,-0.903037,0.000000,0.000000,0.000000,-1,0.001673,-0.002508,0.003829,-0.002427,-0.001285,-0.001458
"2018-06-06 19:16:07.246 +0000",1528312567.245522,0.442709,0.033319,0.375280,0.428151,-0.033313,-0.903093,0.000000,0.000000,0.000000,-1,-0.003531,-0.000300,-0.002606,-0.003499,-0.001065,-0.002227
"2018-06-06 19:16:07.336 +0000",1528312567.336185,0.442843,0.033172,0.375139,0.428274,-0.033166,-0.903040,0.000000,0.000000,0.000000,-1,0.000668,0.001907,-0.002609,-0.001562,0.000222,-0.000937
"2018-06-06 19:16:07.427 +0000",1528312567.426847,0.442905,0.033133,0.374902,0.428330,-0.033127,-0.903015,0.000000,0.000000,0.000000,-1,-0.000396,-0.001398,-0.000465,-0.002503,-0.000534,-0.001755
"2018-06-06 19:16:07.518 +0000",1528312567.517509,0.442993,0.033130,0.375027,0.428410,-0.033124,-0.902977,0.000000,0.000000,0.000000,-1,-0.001494,0.000776,0.002766,-0.001027,-0.000491,-0.001137
"2018-06-06 19:16:07.608 +0000",1528312567.608171,0.442895,0.033182,0.375100,0.428321,-0.033176,-0.903018,0.000000,0.000000,0.000000,-1,0.001689,-0.005788,-0.000487,-0.003287,-0.000286,-0.000761
"2018-06-06 19:16:07.699 +0000",1528312567.698833,0.442994,0.033164,0.375051,0.428411,-0.033158,-0.902975,0.000000,0.000000,0.000000,-1,-0.002515,0.005182,-0.001521,-0.002462,-0.002166,-0.000528
"2018-06-06 19:16:07.789 +0000",1528312567.789495,0.443138,0.033160,0.374985,0.428541,-0.033154,-0.902914,0.000000,0.000000,0.000000,-1,0.000625,-0.000307,0.000607,-0.003263,0.000684,-0.001642
"2018-06-06 19:16:07.880 +0000",1528312567.880157,0.443223,0.033340,0.375051,0.428615,-0.033334,-0.902872,0.000000,0.000000,0.000000,-1,0.000626,-0.001405,0.000604,-0.000453,-0.001365,-0.002249
"2018-06-06 19:16:07.971 +0000",1528312567.970817,0.443186,0.033502,0.374812,0.428579,-0.033496,-0.902883,0.000000,0.000000,0.000000,-1,0.002743,-0.001390,-0.001552,-0.003164,-0.001996,-0.002314
"2018-06-06 19:16:08.061 +0000",1528312568.061479,0.443182,0.033372,0.374362,0.428578,-0.033366,-0.902889,0.000000,0.000000,0.000000,-1,-0.000359,-0.001371,-0.007999,-0.000706,0.000071,-0.001164
"2018-06-06 19:16:08.152 +0000",1528312568.152141,0.443033,0.033231,0.373627,0.428445,-0.033225,-0.902957,0.000000,0.000000,0.000000,-1,0.005957,-0.006838,-0.009105,-0.002495,-0.000955,-0.001599
"2018-06-06 19:16:08.243 +0000",1528312568.242803,0.442868,0.033231,0.372600,0.428296,-0.033225,-0.903028,0.000000,0.000000,0.000000,-1,0.006993,-0.000253,-0.008013,-0.006299,-0.000955,-0.004001
"2018-06-06 19:16:08.333 +0000",1528312568.333465,0.443720,0.033115,0.371928,0.429067,-0.033109,-0.902666,0.000000,0.000000,0.000000,-1,0.002784,0.016206,-0.009031,-0.001683,-0.001971,0.005693
"2018-06-06 19:16:08.424 +0000",1528312568.424127,0.444265,0.033388,0.370878,0.429555,-0.033381,-0.902424,0.000000,0.000000,0.000000,-1,0.008020,0.006327,-0.005845,-0.008824,-0.002156,0.004001
"2018-06-06 19:16:08.515 +0000",1528312568.514789,0.444592,0.033176,0.369116,0.429853,-0.033170,-0.902289,0.000000,0.000000,0.000000,-1,0.000718,0.006337,-0.024095,-0.007032,-0.002612,0.001243
"2018-06-06 19:16:08.605 +0000",1528312568.605450,0.444510,0.032516,0.366319,0.429788,-0.032510,-0.902344,0.000000,0.000000,0.000000,-1,0.018682,-0.003439,-0.037073,-0.002664,0.012628,0.000000
"2018-06-06 19:16:08.696 +0000",1528312568.696112,0.443354,0.033690,0.360085,0.428728,-0.033683,-0.902806,0.000000,0.000000,0.000000,-1,0.050409,-0.021904,-0.063014,-0.000108,0.005210,-0.004909
"2018-06-06 19:16:08.787 +0000",1528312568.786774,0.442715,0.035238,0.355283,0.428129,-0.035231,-0.903031,0.000000,0.000000,0.000000,-1,0.026915,0.001983,-0.015563,-0.003141,-0.008623,0.004395
"2018-06-06 19:16:08.877 +0000",1528312568.877436,0.442746,0.035610,0.355980,0.428151,-0.035603,-0.903006,0.000000,0.000000,0.000000,-1,-0.022805,-0.000545,0.030796,0.013392,-0.011684,0.003027
"2018-06-06 19:16:08.968 +0000",1528312568.968098,0.442258,0.034641,0.360570,0.427725,-0.034634,-0.903245,0.000000,0.000000,0.000000,-1,-0.027076,-0.004989,0.040474,0.006372,0.005444,-0.005553
"2018-06-06 19:16:09.059 +0000",1528312569.058759,0.441072,0.034992,0.364158,0.426647,-0.034985,-0.903741,0.000000,0.000000,0.000000,-1,-0.009104,-0.013662,0.026424,-0.011135,-0.000263,-0.009009
"2018-06-06 19:16:09.149 +0000",1528312569.149421,0.441378,0.034782,0.365173,0.426927,-0.034775,-0.903617,0.000000,0.000000,0.000000,-1,-0.005697,0.002963,-0.009031,-0.012697,0.000489,-0.003014
"2018-06-06 19:16:09.240 +0000",1528312569.240083,0.442187,0.034359,0.364512,0.427664,-0.034352,-0.903285,0.000000,0.000000,0.000000,-1,-0.000500,0.008439,-0.002573,-0.001547,0.004308,-0.002309
"2018-06-06 19:16:09.331 +0000",1528312569.330745,0.443144,0.034532,0.365473,0.428526,-0.034525,-0.902870,0.000000,0.000000,0.000000,-1,0.000428,0.007276,0.013556,0.005587,-0.004721,0.001792
"2018-06-06 19:16:09.421 +0000",1528312569.421407,0.442702,0.034855,0.365892,0.428123,-0.034848,-0.903048,0.000000,0.000000,0.000000,-1,-0.000502,-0.014628,0.000586,0.006280,-0.006595,-0.001660
"2018-06-06 19:16:09.512 +0000",1528312569.512069,0.442301,0.034061,0.366982,0.427772,-0.034055,-0.903245,0.000000,0.000000,0.000000,-1,-0.019555,0.008304,0.016831,-0.008461,0.008283,-0.000610
"2018-06-06 19:16:09.603 +0000",1528312569.602731,0.442506,0.034842,0.368342,0.427946,-0.034835,-0.903133,0.000000,0.000000,0.000000,-1,0.010922,-0.000389,0.015660,-0.001158,-0.001359,0.001125
"2018-06-06 19:16:09.693 +0000",1528312569.693392,0.442061,0.035597,0.368910,0.427532,-0.035590,-0.903299,0.000000,0.000000,0.000000,-1,-0.007832,-0.003653,-0.003668,-0.008693,-0.012567,-0.000204
"2018-06-06 19:16:09.784 +0000",1528312569.784054,0.442545,0.033976,0.368708,0.427994,-0.033969,-0.903143,0.000000,0.000000,0.000000,-1,-0.014050,0.002966,-0.015467,-0.001617,0.004169,-0.006113
"2018-06-06 19:16:09.875 +0000",1528312569.874715,0.443121,0.033504,0.367679,0.428520,-0.033498,-0.902911,0.000000,0.000000,0.000000,-1,0.012200,-0.004655,-0.013398,0.000282,0.005864,-0.001401
"2018-06-06 19:16:09.965 +0000",1528312569.965377,0.442886,0.034205,0.366391,0.428298,-0.034198,-0.902990,0.000000,0.000000,0.000000,-1,0.011072,-0.001405,-0.003705,0.000627,-0.003995,-0.003885
"2018-06-06 19:16:10.056 +0000",1528312570.056040,0.443261,0.033847,0.366284,0.428642,-0.033840,-0.902841,0.000000,0.000000,0.000000,-1,-0.017311,0.013880,-0.002520,-0.012809,0.014034,-0.003455
"2018-06-06 19:16:10.147 +0000",1528312570.146702,0.444429,0.034734,0.364690,0.429683,-0.034727,-0.902312,0.000000,0.000000,0.000000,-1,0.034392,0.000973,-0.031718,0.000325,-0.006532,-0.000353
"2018-06-06 19:16:10.237 +0000",1528312570.237364,0.444840,0.035138,0.361719,0.430048,-0.035130,-0.902122,0.000000,0.000000,0.000000,-1,0.003830,0.004127,-0.018731,0.001303,-0.010371,0.002632
"2018-06-06 19:16:10.328 +0000",1528312570.328026,0.444645,0.034193,0.361056,0.429886,-0.034187,-0.902236,0.000000,0.000000,0.000000,-1,-0.009928,-0.009148,-0.003679,0.009475,0.001487,0.002471
"2018-06-06 19:16:10.419 +0000",1528312570.418687,0.443560,0.034248,0.361161,0.428906,-0.034241,-0.902700,0.000000,0.000000,0.000000,-1,0.001580,-0.012436,0.002739,-0.006818,-0.001067,-0.002238
"2018-06-06 19:16:10.509 +0000",1528312570.509349,0.443526,0.034393,0.362362,0.428873,-0.034386,-0.902710,0.000000,0.000000,0.000000,-1,-0.009078,0.001729,0.021090,-0.008844,-0.003211,-0.001922
"2018-06-06 19:16:10.600 +0000",1528312570.600011,0.443793,0.034793,0.364917,0.429108,-0.034786,-0.902583,0.000000,0.000000,0.000000,-1,-0.010232,-0.001626,0.035067,0.009048,0.001964,0.000270
"2018-06-06 19:16:10.691 +0000",1528312570.690673,0.443325,0.035561,0.369484,0.428674,-0.035554,-0.902759,0.000000,0.000000,0.000000,-1,-0.016676,-0.009410,0.054420,0.004065,0.001572,-0.002285
"2018-06-06 19:16:10.781 +0000",1528312570.781335,0.442332,0.036336,0.374049,0.427766,-0.036328,-0.903159,0.000000,0.000000,0.000000,-1,-0.011295,-0.014816,0.038258,-0.009019,-0.002490,-0.000008
"2018-06-06 19:16:10.872 +0000",1528312570.871997,0.441838,0.036015,0.377023,0.427324,-0.036007,-0.903381,0.000000,0.000000,0.000000,-1,-0.022740,0.009375,0.021144,-0.013170,-0.003956,-0.002945
"2018-06-06 19:16:10.963 +0000",1528312570.962658,0.443602,0.034088,0.378003,0.428947,-0.034081,-0.902687,0.000000,0.000000,0.000000,-1,-0.014046,0.016148,-0.017580,-0.014716,0.018487,-0.009270
"2018-06-06 19:16:11.053 +0000",1528312571.053319,0.444374,0.035143,0.373530,0.429627,-0.035136,-0.902323,0.000000,0.000000,0.000000,-1,0.040856,-0.004412,-0.052186,0.000839,0.005015,0.008051
"2018-06-06 19:16:11.144 +0000",1528312571.143981,0.444464,0.035495,0.365077,0.429704,-0.035488,-0.902272,0.000000,0.000000,0.000000,-1,0.044444,-0.003066,-0.109199,-0.007981,0.002651,-0.007975
"2018-06-06 19:16:11.235 +0000",1528312571.234643,0.444402,0.035133,0.353399,0.429653,-0.035126,-0.902310,0.000000,0.000000,0.000000,-1,0.067725,-0.002906,-0.131841,-0.001049,0.000336,-0.000766
"2018-06-06 19:16:11.325 +0000",1528312571.325305,0.443868,0.034768,0.338859,0.429176,-0.034761,-0.902552,0.000000,0.000000,0.000000,-1,0.067919,-0.007193,-0.156593,-0.011177,0.009905,-0.009054
"2018-06-06 19:16:11.416 +0000",1528312571.415967,0.444455,0.035318,0.320881,0.429697,-0.035311,-0.902282,0.000000,0.000000,0.000000,-1,0.114568,-0.002433,-0.213696,-0.011484,0.016344,0.002227
"2018-06-06 19:16:11.507 +0000",1528312571.506629,0.445073,0.036214,0.295128,0.430242,-0.036206,-0.901987,0.000000,0.000000,0.000000,-1,0.147628,-0.006463,-0.278323,-0.006078,0.015622,-0.004492
"2018-06-06 19:16:11.597 +0000",1528312571.597291,0.445980,0.036557,0.265526,0.431054,-0.036549,-0.901585,0.000000,0.000000,0.000000,-1,0.129955,0.001275,-0.303000,-0.001488,-0.004986,0.005544
"2018-06-06 19:16:11.688 +0000",1528312571.687953,0.446587,0.035498,0.234302,0.431618,-0.035491,-0.901358,0.000000,0.000000,0.000000,-1,0.136414,-0.007408,-0.322402,0.002662,-0.003053,0.002463
"2018-06-06 19:16:11.779 +0000",1528312571.778615,0.447106,0.033825,0.203911,0.432111,-0.033819,-0.901186,0.000000,0.000000,0.000000,-1,0.114134,-0.007592,-0.293309,0.001742,-0.008600,0.004030
"2018-06-06 19:16:11.869 +0000",1528312571.869277,0.447741,0.031414,0.178919,0.432717,-0.031409,-0.900982,0.000000,0.000000,0.000000,-1,0.076832,0.002994,-0.224351,0.005302,-0.016718,0.004071
"2018-06-06 19:16:11.960 +0000",1528312571.959937,0.448587,0.029514,0.161036,0.433504,-0.029509,-0.900668,0.000000,0.000000,0.000000,-1,0.057394,-0.001744,-0.154404,0.005904,-0.012925,0.002078
"2018-06-06 19:16:12.051 +0000",1528312572.050600,0.448685,0.027436,0.149426,0.433617,-0.027432,-0.900679,0.000000,0.000000,0.000000,-1,0.020197,-0.005380,-0.097320,0.010291,-0.010837,0.002593
"2018-06-06 19:16:12.141 +0000",1528312572.141262,0.448559,0.026372,0.144226,0.433517,-0.026369,-0.900759,0.000000,0.000000,0.000000,-1,0.011240,-0.004609,-0.025229,0.010575,-0.011869,0.002459
"2018-06-06 19:16:12.232 +0000",1528312572.231924,0.448376,0.026221,0.145111,0.433353,-0.026218,-0.900842,0.000000,0.000000,0.000000,-1,-0.017594,-0.000555,0.036161,0.007183,-0.007077,0.002908
"2018-06-06 19:16:12.323 +0000",1528312572.322586,0.447839,0.026546,0.151025,0.432866,-0.026543,-0.901067,0.000000,0.000000,0.000000,-1,-0.033663,-0.000771,0.077071,0.002437,-0.011192,0.001653
"2018-06-06 19:16:12.413 +0000",1528312572.413247,0.447337,0.026284,0.160301,0.432416,-0.026281,-0.901291,0.000000,0.000000,0.000000,-1,-0.056987,0.000144,0.105094,-0.003049,-0.001765,0.000152
"2018-06-06 19:16:12.504 +0000",1528312572.503909,0.447780,0.026100,0.172224,0.432818,-0.026097,-0.901103,0.000000,0.000000,0.000000,-1,-0.053981,0.014353,0.122340,-0.005816,0.005406,-0.002049
"2018-06-06 19:16:12.595 +0000",1528312572.594571,0.448618,0.026473,0.183884,0.433569,-0.026470,-0.900731,0.000000,0.000000,0.000000,-1,-0.050764,0.014398,0.113728,-0.001501,0.001964,0.001714
"2018-06-06 19:16:12.685 +0000",1528312572.685233,0.448960,0.027027,0.195377,0.433870,-0.027024,-0.900570,0.000000,0.000000,0.000000,-1,-0.057108,0.005571,0.120171,-0.001497,-0.000961,0.000332
"2018-06-06 19:16:12.776 +0000",1528312572.775895,0.448917,0.026667,0.208084,0.433836,-0.026664,-0.900597,0.000000,0.000000,0.000000,-1,-0.069721,-0.002157,0.122328,0.001467,0.000235,-0.001472
"2018-06-06 19:16:12.867 +0000",1528312572.866557,0.448243,0.026256,0.220199,0.433234,-0.026253,-0.900899,0.000000,0.000000,0.000000,-1,-0.051796,-0.013053,0.114726,-0.001105,0.003884,-0.005366
"2018-06-06 19:16:12.957 +0000",1528312572.957218,0.447613,0.026716,0.230847,0.432660,-0.026713,-0.901161,0.000000,0.000000,0.000000,-1,-0.041196,-0.001987,0.100751,-0.011793,0.001338,0.001670
"2018-06-06 19:16:13.048 +0000",1528312573.047880,0.447494,0.027058,0.240408,0.432549,-0.027055,-0.901204,0.000000,0.000000,0.000000,-1,-0.052731,0.003483,0.097566,-0.000542,0.004090,-0.003673
"2018-06-06 19:16:13.139 +0000",1528312573.138542,0.447203,0.026307,0.249452,0.432295,-0.026304,-0.901348,0.000000,0.000000,0.000000,-1,-0.038905,-0.002975,0.076003,0.004869,-0.001162,-0.001347
"2018-06-06 19:16:13.229 +0000",1528312573.229204,0.445610,0.027037,0.255911,0.430851,-0.027034,-0.902018,0.000000,0.000000,0.000000,-1,-0.023051,-0.019352,0.065162,-0.009174,0.002955,-0.011190
"2018-06-06 19:16:13.320 +0000",1528312573.319866,0.444813,0.027610,0.262193,0.430125,-0.027606,-0.902347,0.000000,0.000000,0.000000,-1,-0.019847,0.002652,0.055538,-0.009424,0.001544,-0.004101
"2018-06-06 19:16:13.411 +0000",1528312573.410527,0.445412,0.027802,0.266110,0.430663,-0.027798,-0.902084,0.000000,0.000000,0.000000,-1,-0.017588,0.018122,0.032990,-0.007857,-0.007938,0.004379
"2018-06-06 19:16:13.501 +0000",1528312573.501189,0.447300,0.025963,0.270072,0.432387,-0.025960,-0.901314,0.000000,0.000000,0.000000,-1,-0.050164,0.016924,0.035212,-0.002836,0.003789,-0.003486
"2018-06-06 19:16:13.592 +0000",1528312573.591851,0.449522,0.024566,0.276395,0.434404,-0.024564,-0.900383,0.000000,0.000000,0.000000,-1,-0.042036,0.018994,0.070696,0.010177,-0.004992,0.000969
"2018-06-06 19:16:13.683 +0000",1528312573.682513,0.450113,0.024037,0.285722,0.434942,-0.024035,-0.900137,0.000000,0.000000,0.000000,-1,-0.060143,0.005627,0.105119,-0.004415,-0.007658,0.000998
"2018-06-06 19:16:13.773 +0000",1528312573.773174,0.450406,0.022804,0.298663,0.435217,-0.022802,-0.900036,0.000000,0.000000,0.000000,-1,-0.084553,0.018601,0.136407,0.005533,-0.016673,0.000042
"2018-06-06 19:16:13.864 +0000",1528312573.863836,0.451518,0.020945,0.315694,0.436236,-0.020944,-0.899588,0.000000,0.000000,0.000000,-1,-0.105820,0.005220,0.171913,-0.006412,0.001428,-0.003626
"2018-06-06 19:16:13.954 +0000",1528312573.954498,0.450261,0.022942,0.329697,0.435086,-0.022940,-0.900096,0.000000,0.000000,0.000000,-1,0.050138,-0.030314,0.110141,0.004154,0.017737,0.009090
"2018-06-06 19:16:14.045 +0000",1528312574.045160,0.446434,0.031097,0.332986,0.431543,-0.031092,-0.901556,0.000000,0.000000,0.000000,-1,0.003221,0.026859,0.057708,-0.064615,-0.009359,0.023794
"2018-06-06 19:16:14.136 +0000",1528312574.135822,0.446115,0.028084,0.337320,0.431294,-0.028080,-0.901774,0.000000,0.000000,0.000000,-1,-0.063931,0.031103,0.048193,0.013302,0.018253,-0.002416
"2018-06-06 19:16:14.226 +0000",1528312574.226483,0.448351,0.027537,0.341346,0.433316,-0.027534,-0.900821,0.000000,0.000000,0.000000,-1,-0.010191,0.041232,0.024435,-0.012707,0.013755,-0.007382
"2018-06-06 19:16:14.317 +0000",1528312574.317145,0.450750,0.027413,0.335256,0.435477,-0.027410,-0.899782,0.000000,0.000000,0.000000,-1,0.073012,0.011407,-0.138264,-0.020972,0.022222,-0.010145
"2018-06-06 19:16:14.408 +0000",1528312574.407807,0.454193,0.028208,0.314283,0.438562,-0.028204,-0.898258,0.000000,0.000000,0.000000,-1,0.154752,0.059334,-0.256633,-0.014688,0.013037,-0.005093
"2018-06-06 19:16:14.498 +0000",1528312574.498469,0.454926,0.033022,0.287416,0.439156,-0.033016,-0.897804,0.000000,0.000000,0.000000,-1,0.182949,-0.071378,-0.219430,0.025230,0.010204,-0.005502
"2018-06-06 19:16:14.589 +0000",1528312574.589130,0.450727,0.036707,0.265816,0.435326,-0.036699,-0.899524,0.000000,0.000000,0.000000,-1,0.095474,-0.072883,-0.180512,0.015586,-0.025817,0.001163
"2018-06-06 19:16:14.680 +0000",1528312574.679792,0.450345,0.037503,0.251526,0.434970,-0.037494,-0.899664,0.000000,0.000000,0.000000,-1,0.062302,0.028837,-0.113450,-0.018527,-0.007595,-0.002741
"2018-06-06 19:16:14.770 +0000",1528312574.770454,0.451183,0.034575,0.241367,0.435770,-0.034568,-0.899394,0.000000,0.000000,0.000000,-1,0.029816,0.011214,-0.120956,-0.017313,0.005363,-0.010259
"2018-06-06 19:16:14.861 +0000",1528312574.861116,0.445831,0.028415,0.229095,0.431034,-0.028411,-0.901888,0.000000,0.000000,0.000000,-1,0.040513,-0.043568,-0.139426,0.014782,0.022963,-0.031645
"2018-06-06 19:16:14.952 +0000",1528312574.951778,0.442035,0.023466,0.219596,0.427662,-0.023464,-0.903634,0.000000,0.000000,0.000000,-1,-0.038921,-0.004608,-0.058458,0.041073,-0.033268,0.028802
"2018-06-06 19:16:15.042 +0000",1528312575.042439,0.438692,0.018261,0.216614,0.424685,-0.018260,-0.905157,0.000000,0.000000,0.000000,-1,-0.054903,-0.025645,-0.026213,0.016874,-0.033604,-0.000666
"2018-06-06 19:16:15.133 +0000",1528312575.133101,0.438204,0.009588,0.223674,0.424294,-0.009588,-0.905473,0.000000,0.000000,0.000000,-1,-0.069299,0.039811,0.062213,0.015678,0.048025,-0.007140
"2018-06-06 19:16:15.224 +0000",1528312575.223763,0.443515,0.007519,0.227384,0.429104,-0.007519,-0.903223,0.000000,0.000000,0.000000,-1,-0.063959,0.093693,0.044072,-0.024655,0.000164,0.012736
"2018-06-06 19:16:15.314 +0000",1528312575.314425,0.450863,0.002604,0.230673,0.435740,-0.002604,-0.900068,0.000000,0.000000,0.000000,-1,-0.039542,0.090607,0.010662,0.012578,0.003962,0.010130
"2018-06-06 19:16:15.405 +0000",1528312575.405086,0.454252,0.002724,0.229231,0.438789,-0.002724,-0.898586,0.000000,0.000000,0.000000,-1,0.044771,0.018507,-0.017707,-0.017997,0.016060,0.000515
"2018-06-06 19:16:15.496 +0000",1528312575.495748,0.455574,0.005163,0.228904,0.439971,-0.005163,-0.897997,0.000000,0.000000,0.000000,-1,0.012864,0.010513,0.035049,0.006974,0.002767,-0.011488
"2018-06-06 19:16:15.586 +0000",1528312575.586410,0.456414,0.010681,0.229926,0.440707,-0.010680,-0.897588,0.000000,0.000000,0.000000,-1,0.059004,0.002913,0.045678,-0.007769,0.000411,0.005116
"2018-06-06 19:16:15.677 +0000",1528312575.677072,0.457229,0.014810,0.233797,0.441415,-0.014810,-0.897181,0.000000,0.000000,0.000000,-1,0.005241,0.024623,0.068452,0.009406,-0.009650,0.000345
"2018-06-06 19:16:15.768 +0000",1528312575.767734,0.460274,0.019109,0.239490,0.444112,-0.019108,-0.895767,0.000000,0.000000,0.000000,-1,0.016612,0.052013,0.088943,0.006632,-0.006389,0.001694
"2018-06-06 19:16:15.858 +0000",1528312575.858395,0.464633,0.021205,0.243948,0.447994,-0.021203,-0.893785,0.000000,0.000000,0.000000,-1,0.029820,0.042495,0.011439,-0.016827,0.001275,-0.012129
"2018-06-06 19:16:15.949 +0000",1528312575.949057,0.462770,0.023548,0.240047,0.446305,-0.023546,-0.894571,0.000000,0.000000,0.000000,-1,0.046039,-0.035189,-0.039379,-0.004700,0.008974,-0.002371
"2018-06-06 19:16:16.040 +0000",1528312576.039719,0.461514,0.027564,0.230300,0.445135,-0.027560,-0.895039,0.000000,0.000000,0.000000,-1,0.157914,-0.019207,-0.111657,-0.010825,0.017428,-0.028881
"2018-06-06 19:16:16.130 +0000",1528312576.130381,0.455856,0.034331,0.217752,0.439972,-0.034324,-0.897355,0.000000,0.000000,0.000000,-1,0.074493,-0.089975,-0.044982,0.018082,-0.002755,0.009126
"2018-06-06 19:16:16.221 +0000",1528312576.221042,0.446154,0.039025,0.211544,0.431170,-0.039016,-0.901427,0.000000,0.000000,0.000000,-1,0.088142,-0.093235,-0.043947,-0.014209,0.005980,-0.017793
"2018-06-06 19:16:16.312 +0000",1528312576.311704,0.439521,0.043743,0.205943,0.425099,-0.043729,-0.904090,0.000000,0.000000,0.000000,-1,0.013175,-0.029954,-0.000566,-0.005574,0.001889,0.002097
"2018-06-06 19:16:16.402 +0000",1528312576.402366,0.436336,0.050050,0.203623,0.422093,-0.050029,-0.905171,0.000000,0.000000,0.000000,-1,0.153061,-0.096460,-0.017214,-0.009297,0.012233,-0.021480
"2018-06-06 19:16:16.493 +0000",1528312576.493028,0.420481,0.055077,0.195693,0.407581,-0.055050,-0.911508,0.000000,0.000000,0.000000,-1,0.049774,-0.236954,-0.090530,0.013623,0.004543,0.017969
"2018-06-06 19:16:16.584 +0000",1528312576.583689,0.401239,0.049701,0.192988,0.390077,-0.049681,-0.919441,0.000000,0.000000,0.000000,-1,-0.064613,-0.144431,0.021869,0.005065,-0.000155,-0.017662
"2018-06-06 19:16:16.674 +0000",1528312576.674351,0.386188,0.049463,0.199161,0.376200,-0.049443,-0.925218,0.000000,0.000000,0.000000,-1,0.070761,-0.146317,0.037688,0.001410,-0.001232,-0.030012
"2018-06-06 19:16:16.765 +0000",1528312576.765013,0.375085,0.058021,0.200886,0.365735,-0.057988,-0.928911,0.000000,0.000000,0.000000,-1,0.066320,-0.087149,0.061535,0.008884,-0.018993,0.017534
"2018-06-06 19:16:16.856 +0000",1528312576.855675,0.373694,0.063376,0.204663,0.364324,-0.063334,-0.929116,0.000000,0.000000,0.000000,-1,0.021318,0.067680,0.021214,-0.039419,0.001795,-0.014915
"2018-06-06 19:16:16.946 +0000",1528312576.946336,0.376597,0.060988,0.203018,0.367074,-0.060951,-0.928193,0.000000,0.000000,0.000000,-1,0.023200,-0.014237,-0.076913,-0.001596,0.034019,-0.027465
"2018-06-06 19:16:17.037 +0000",1528312577.036998,0.382244,0.051619,0.202968,0.372507,-0.051596,-0.926594,0.000000,0.000000,0.000000,-1,-0.144118,0.052125,-0.044067,0.010519,-0.015482,0.003971
"2018-06-06 19:16:17.128 +0000",1528312577.127660,0.395033,0.027727,0.205698,0.384691,-0.027724,-0.922629,0.000000,0.000000,0.000000,-1,-0.234329,0.201312,-0.077847,0.035429,0.000426,-0.043344
"2018-06-06 19:16:17.218 +0000",1528312577.218322,0.414911,0.017162,0.198485,0.403049,-0.017161,-0.915018,0.000000,0.000000,0.000000,-1,0.040824,0.155403,-0.204461,-0.007907,0.008464,0.005304
"2018-06-06 19:16:17.309 +0000",1528312577.308984,0.429550,0.013083,0.182069,0.416426,-0.013083,-0.909075,0.000000,0.000000,0.000000,-1,0.034625,0.263605,-0.094417,0.009675,0.019674,-0.018354
"2018-06-06 19:16:17.400 +0000",1528312577.399645,0.441037,0.007761,0.180143,0.426864,-0.007761,-0.904282,0.000000,0.000000,0.000000,-1,-0.067937,0.093804,0.015040,0.035157,-0.029196,0.013505
"2018-06-06 19:16:17.490 +0000",1528312577.490307,0.445999,0.002342,0.187918,0.431358,-0.002342,-0.902178,0.000000,0.000000,0.000000,-1,-0.083954,-0.003037,0.061048,-0.002464,-0.000542,-0.007765
"2018-06-06 19:16:17.581 +0000",1528312577.580969,0.449245,-0.003332,0.198619,0.434283,0.003332,-0.900770,0.000000,0.000000,0.000000,-1,-0.110460,0.063750,0.084964,-0.025333,0.009378,0.004240
"2018-06-06 19:16:17.672 +0000",1528312577.671630,0.452584,-0.007864,0.205451,0.437277,0.007864,-0.899292,0.000000,0.000000,0.000000,-1,-0.035276,-0.001609,0.013609,-0.016028,0.029794,-0.027191
"2018-06-06 19:16:17.762 +0000",1528312577.762292,0.453193,-0.007169,0.208682,0.437827,0.007169,-0.899030,0.000000,0.000000,0.000000,-1,-0.020074,0.006919,0.084591,0.014245,0.007510,0.005765
"2018-06-06 19:16:17.853 +0000",1528312577.852954,0.453850,-0.004385,0.216933,0.438424,0.004385,-0.898757,0.000000,0.000000,0.000000,-1,0.000649,0.052952,0.115871,0.005637,0.007090,-0.001908
"2018-06-06 19:16:17.944 +0000",1528312577.943616,0.458703,-0.001858,0.225963,0.442785,0.001858,-0.896626,0.000000,0.000000,0.000000,-1,-0.008628,0.067300,0.091195,-0.028341,0.020114,-0.011104
"2018-06-06 19:16:18.034 +0000",1528312578.034278,0.465502,0.000620,0.228734,0.448871,-0.000620,-0.893596,0.000000,0.000000,0.000000,-1,0.050958,0.077770,-0.010022,-0.016330,0.029337,-0.001637
"2018-06-06 19:16:18.125 +0000",1528312578.124939,0.469511,0.004225,0.217638,0.452446,-0.004225,-0.891782,0.000000,0.000000,0.000000,-1,0.111808,0.037836,-0.132901,-0.004616,0.015685,0.005887
"2018-06-06 19:16:18.216 +0000",1528312578.215601,0.469858,0.006883,0.198127,0.452749,-0.006883,-0.891611,0.000000,0.000000,0.000000,-1,0.151405,-0.003390,-0.223466,-0.016973,0.008424,-0.006613
"2018-06-06 19:16:18.306 +0000",1528312578.306263,0.470451,0.008706,0.169954,0.453271,-0.008706,-0.891330,0.000000,0.000000,0.000000,-1,0.151895,0.019943,-0.290089,-0.019067,0.004098,-0.000073
"2018-06-06 19:16:18.397 +0000",1528312578.396924,0.470769,0.009672,0.141285,0.453550,-0.009672,-0.891178,0.000000,0.000000,0.000000,-1,0.146299,0.016445,-0.244909,0.018358,-0.006335,0.000080
"2018-06-06 19:16:18.488 +0000",1528312578.487586,0.472665,0.011591,0.117312,0.455230,-0.011591,-0.890298,0.000000,0.000000,0.000000,-1,0.136630,0.009710,-0.215864,-0.003890,0.004846,-0.004035
"2018-06-06 19:16:18.578 +0000",1528312578.578248,0.473479,0.014745,0.099513,0.455936,-0.014745,-0.889890,0.000000,0.000000,0.000000,-1,0.096885,0.015710,-0.101736,0.022259,-0.023204,0.008863
"2018-06-06 19:16:18.669 +0000",1528312578.668910,0.471205,0.016903,0.093249,0.453895,-0.016903,-0.890894,0.000000,0.000000,0.000000,-1,0.023682,-0.024432,-0.001650,0.023476,-0.026524,0.006540
"2018-06-06 19:16:18.760 +0000",1528312578.759571,0.469675,0.017923,0.097530,0.452523,-0.017922,-0.891572,0.000000,0.000000,0.000000,-1,-0.032665,0.001401,0.083530,0.008612,-0.018257,0.001817
"2018-06-06 19:16:18.850 +0000",1528312578.850233,0.469661,0.017973,0.109169,0.452511,-0.017972,-0.891577,0.000000,0.000000,0.000000,-1,-0.063508,-0.003288,0.134142,0.000386,-0.004962,0.001044
"2018-06-06 19:16:18.941 +0000",1528312578.940895,0.469969,0.018639,0.124868,0.452780,-0.018637,-0.891427,0.000000,0.000000,0.000000,-1,-0.077416,0.002027,0.166459,-0.000082,-0.005334,0.002526
"2018-06-06 19:16:19.032 +0000",1528312579.031557,0.468930,0.019520,0.141806,0.451846,-0.019519,-0.891882,0.000000,0.000000,0.000000,-1,-0.081699,-0.015603,0.179325,0.007032,-0.014615,0.002355
"2018-06-06 19:16:19.122 +0000",1528312579.122218,0.468219,0.018688,0.160892,0.451219,-0.018686,-0.892217,0.000000,0.000000,0.000000,-1,-0.121790,0.005057,0.199915,0.002501,-0.008016,0.004323
"2018-06-06 19:16:19.213 +0000",1528312579.212880,0.469316,0.017242,0.183941,0.452209,-0.017241,-0.891745,0.000000,0.000000,0.000000,-1,-0.124122,0.022498,0.227937,0.003174,0.013670,-0.003138
"2018-06-06 19:16:19.304 +0000",1528312579.303542,0.469394,0.017530,0.204204,0.452277,-0.017529,-0.891705,0.000000,0.000000,0.000000,-1,-0.080612,-0.019973,0.175008,-0.013907,0.010174,-0.000370
"2018-06-06 19:16:19.394 +0000",1528312579.394204,0.468501,0.018119,0.219596,0.451475,-0.018118,-0.892099,0.000000,0.000000,0.000000,-1,-0.069815,0.001086,0.134170,-0.013044,0.009039,-0.001913
"2018-06-06 19:16:19.485 +0000",1528312579.484865,0.469237,0.017633,0.231435,0.452135,-0.017632,-0.891774,0.000000,0.000000,0.000000,-1,-0.057991,0.021036,0.096553,-0.016787,0.009041,-0.005504
"2018-06-06 19:16:19.576 +0000",1528312579.575527,0.470834,0.017362,0.238310,0.453561,-0.017361,-0.891055,0.000000,0.000000,0.000000,-1,-0.015506,0.012628,0.036198,0.001487,0.011578,-0.002148
"2018-06-06 19:16:19.666 +0000",1528312579.666189,0.471571,0.018316,0.238783,0.454210,-0.018315,-0.890706,0.000000,0.000000,0.000000,-1,0.017411,0.003029,-0.009082,-0.006548,0.010243,0.000554
"2018-06-06 19:16:19.757 +0000",1528312579.756850,0.471467,0.018732,0.236793,0.454114,-0.018731,-0.890746,0.000000,0.000000,0.000000,-1,0.017502,0.003079,-0.020914,-0.000867,0.004448,-0.000215
"2018-06-06 19:16:19.848 +0000",1528312579.847512,0.471504,0.019273,0.233677,0.454142,-0.019272,-0.890720,0.000000,0.000000,0.000000,-1,0.018625,0.005318,-0.030591,-0.004236,0.002335,-0.005047
"2018-06-06 19:16:19.938 +0000",1528312579.938174,0.472403,0.019842,0.230743,0.454938,-0.019841,-0.890301,0.000000,0.000000,0.000000,-1,0.029103,0.005334,-0.027388,-0.003293,-0.001949,0.001248
"2018-06-06 19:16:20.029 +0000",1528312580.028836,0.472664,0.020931,0.227846,0.455159,-0.020929,-0.890163,0.000000,0.000000,0.000000,-1,0.011182,0.004150,-0.018745,0.006297,0.002115,-0.006748
"2018-06-06 19:16:20.119 +0000",1528312580.119497,0.472998,0.021792,0.226231,0.455448,-0.021790,-0.889995,0.000000,0.000000,0.000000,-1,0.017460,-0.004632,-0.014483,0.006893,-0.003829,-0.002141
"2018-06-06 19:16:20.210 +0000",1528312580.210159,0.472095,0.022568,0.223242,0.454637,-0.022566,-0.890390,0.000000,0.000000,0.000000,-1,0.023916,-0.018809,-0.032825,-0.003831,-0.011705,-0.001883
"2018-06-06 19:16:20.301 +0000",1528312580.300821,0.471292,0.022286,0.219681,0.453925,-0.022285,-0.890760,0.000000,0.000000,0.000000,-1,0.011328,-0.001262,-0.037047,-0.015021,0.001655,-0.005419
"2018-06-06 19:16:20.391 +0000",1528312580.391483,0.470698,0.021220,0.218079,0.453406,-0.021219,-0.891051,0.000000,0.000000,0.000000,-1,-0.000452,0.001877,-0.007969,0.009790,0.007272,-0.001665
"2018-06-06 19:16:20.482 +0000",1528312580.482143,0.470054,0.021831,0.216565,0.452826,-0.021829,-0.891331,0.000000,0.000000,0.000000,-1,0.032230,-0.012244,-0.022068,0.006937,-0.003592,0.005604
"2018-06-06 19:16:20.573 +0000",1528312580.572805,0.468692,0.022388,0.211668,0.451607,-0.022386,-0.891935,0.000000,0.000000,0.000000,-1,0.031524,-0.017550,-0.066184,-0.011650,-0.009459,-0.000002
"2018-06-06 19:16:20.663 +0000",1528312580.663467,0.467663,0.022487,0.206712,0.450687,-0.022485,-0.892398,0.000000,0.000000,0.000000,-1,0.004814,0.004096,-0.010126,-0.009403,0.009469,-0.009427
"2018-06-06 19:16:20.754 +0000",1528312580.754128,0.469197,0.022758,0.207814,0.452053,-0.022756,-0.891700,0.000000,0.000000,0.000000,-1,-0.005889,0.013843,0.014667,0.004521,-0.001567,-0.000847
"2018-06-06 19:16:20.845 +0000",1528312580.844790,0.469813,0.023211,0.207693,0.452597,-0.023209,-0.891412,0.000000,0.000000,0.000000,-1,0.007954,-0.001393,-0.007998,0.000894,0.000702,0.002969
"2018-06-06 19:16:20.935 +0000",1528312580.935452,0.469375,0.024062,0.206323,0.452198,-0.024060,-0.891592,0.000000,0.000000,0.000000,-1,0.016342,-0.003574,-0.005872,-0.005970,0.002286,-0.002558
"2018-06-06 19:16:21.026 +0000",1528312581.026114,0.469299,0.024077,0.206035,0.452130,-0.024075,-0.891627,0.000000,0.000000,0.000000,-1,-0.006797,0.004032,-0.002570,0.002430,-0.002048,-0.000402
"2018-06-06 19:16:21.117 +0000",1528312581.116776,0.468783,0.023483,0.205316,0.451676,-0.023481,-0.891872,0.000000,0.000000,0.000000,-1,-0.001453,-0.006885,-0.013370,-0.001069,0.001020,-0.004124
"2018-06-06 19:16:21.207 +0000",1528312581.207438,0.468185,0.023151,0.204017,0.451146,-0.023149,-0.892149,0.000000,0.000000,0.000000,-1,0.005857,-0.004692,-0.008003,-0.005452,0.006227,-0.003664
"2018-06-06 19:16:21.298 +0000",1528312581.298100,0.468337,0.023597,0.203847,0.451277,-0.023595,-0.892071,0.000000,0.000000,0.000000,-1,-0.001579,0.004029,0.001721,-0.004439,-0.004710,-0.001026
"2018-06-06 19:16:21.389 +0000",1528312581.388761,0.468923,0.023106,0.203849,0.451805,-0.023103,-0.891817,0.000000,0.000000,0.000000,-1,-0.000466,-0.000328,-0.005824,0.001228,0.000856,0.000169
"2018-06-06 19:16:21.479 +0000",1528312581.479423,0.468668,0.023151,0.203524,0.451577,-0.023149,-0.891931,0.000000,0.000000,0.000000,-1,0.003675,-0.006939,0.002752,-0.002236,0.003618,-0.002173
"2018-06-06 19:16:21.570 +0000",1528312581.570085,0.468578,0.023491,0.203447,0.451493,-0.023488,-0.891964,0.000000,0.000000,0.000000,-1,0.001590,-0.005838,0.000609,-0.005082,-0.000208,-0.000308
"2018-06-06 19:16:21.661 +0000",1528312581.660747,0.468681,0.023525,0.203419,0.451585,-0.023523,-0.891917,0.000000,0.000000,0.000000,-1,0.002658,0.001863,-0.002598,-0.001481,0.001749,-0.000478
"2018-06-06 19:16:21.751 +0000",1528312581.751408,0.468732,0.023494,0.203200,0.451631,-0.023492,-0.891895,0.000000,0.000000,0.000000,-1,0.000551,-0.000343,-0.001524,-0.000734,0.001351,-0.000851
"2018-06-06 19:16:21.842 +0000",1528312581.842070,0.468605,0.023478,0.203100,0.451518,-0.023476,-0.891953,0.000000,0.000000,0.000000,-1,0.000546,-0.003640,-0.000458,-0.001216,0.001778,-0.000839
"2018-06-06 19:16:21.933 +0000",1528312581.932732,0.468547,0.023605,0.202994,0.451464,-0.023602,-0.891976,0.000000,0.000000,0.000000,-1,0.000569,-0.001431,-0.003678,-0.002108,0.000516,-0.002738
"2018-06-06 19:16:22.023 +0000",1528312582.023393,0.468619,0.023592,0.202803,0.451529,-0.023589,-0.891944,0.000000,0.000000,0.000000,-1,0.001617,0.000767,-0.003674,-0.004263,-0.001893,-0.000558
"2018-06-06 19:16:22.114 +0000",1528312582.114055,0.468730,0.023467,0.202831,0.451629,-0.023465,-0.891897,0.000000,0.000000,0.000000,-1,-0.001585,0.001829,0.002790,-0.001403,0.000608,0.000020
"2018-06-06 19:16:22.205 +0000",1528312582.204717,0.468551,0.023548,0.202889,0.451468,-0.023546,-0.891976,0.000000,0.000000,0.000000,-1,-0.000531,-0.001461,0.002778,-0.002570,-0.001265,-0.002403
"2018-06-06 19:16:22.295 +0000",1528312582.295379,0.468405,0.023558,0.202898,0.451338,-0.023556,-0.892042,0.000000,0.000000,0.000000,-1,0.000554,-0.003636,-0.001533,-0.004362,0.000698,0.000165
"2018-06-06 19:16:22.386 +0000",1528312582.386040,0.468414,0.023622,0.202774,0.451346,-0.023619,-0.892036,0.000000,0.000000,0.000000,-1,0.001618,-0.000331,-0.003677,-0.001959,0.001937,-0.000878
"2018-06-06 19:16:22.477 +0000",1528312582.476702,0.468566,0.023747,0.202378,0.451479,-0.023744,-0.891965,0.000000,0.000000,0.000000,-1,0.003688,-0.002538,0.000614,-0.000445,0.000063,-0.000995
"2018-06-06 19:16:22.567 +0000",1528312582.567364,0.468710,0.023844,0.202616,0.451607,-0.023842,-0.891897,0.000000,0.000000,0.000000,-1,-0.006851,-0.000390,0.004947,-0.000191,0.000237,-0.006204
"2018-06-06 19:16:22.658 +0000",1528312582.658025,0.468717,0.024285,0.202963,0.451609,-0.024282,-0.891885,0.000000,0.000000,0.000000,-1,-0.000873,-0.005722,0.005422,-0.000986,-0.001276,-0.002814
"2018-06-06 19:16:22.749 +0000",1528312582.748687,0.468783,0.024286,0.203068,0.451667,-0.024284,-0.891855,0.000000,0.000000,0.000000,-1,-0.006048,-0.000203,-0.005306,-0.004280,-0.002053,-0.000815
"2018-06-06 19:16:22.839 +0000",1528312582.839349,0.468754,0.023799,0.202880,0.451647,-0.023797,-0.891878,0.000000,0.000000,0.000000,-1,-0.004987,-0.002391,-0.006391,0.004164,0.003655,-0.000333
"2018-06-06 19:16:22.930 +0000",1528312582.930010,0.468594,0.023692,0.202834,0.451505,-0.023689,-0.891953,0.000000,0.000000,0.000000,-1,0.000236,-0.006786,-0.002113,-0.003339,0.000145,-0.000243
"2018-06-06 19:16:23.021 +0000",1528312583.020671,0.468419,0.023572,0.202764,0.451351,-0.023570,-0.892034,0.000000,0.000000,0.000000,-1,-0.001869,-0.002400,-0.002095,-0.003093,0.001537,-0.000696
"2018-06-06 19:16:23.111 +0000",1528312583.111333,0.468386,0.023295,0.202703,0.451324,-0.023293,-0.892055,0.000000,0.000000,0.000000,-1,-0.001872,0.000893,-0.002086,-0.002212,0.003671,-0.003041
"2018-06-06 19:16:23.202 +0000",1528312583.201995,0.468348,0.023484,0.202196,0.451288,-0.023481,-0.892069,0.000000,0.000000,0.000000,-1,0.005501,-0.003469,-0.004267,-0.000986,0.000273,-0.000448
"2018-06-06 19:16:23.293 +0000",1528312583.292656,0.468168,0.023601,0.201560,0.451126,-0.023599,-0.892147,0.000000,0.000000,0.000000,-1,-0.001844,-0.002387,-0.005322,-0.001328,-0.002097,-0.000141
"2018-06-06 19:16:23.383 +0000",1528312583.383318,0.468244,0.023086,0.201394,0.451199,-0.023084,-0.892124,0.000000,0.000000,0.000000,-1,-0.005034,0.003075,-0.000997,-0.002209,0.002378,-0.001553
"2018-06-06 19:16:23.474 +0000",1528312583.473980,0.468382,0.022936,0.201658,0.451324,-0.022934,-0.892065,0.000000,0.000000,0.000000,-1,-0.000866,0.004166,0.003300,-0.001281,0.003799,-0.001032
"2018-06-06 19:16:23.565 +0000",1528312583.564641,0.468419,0.023422,0.201649,0.451352,-0.023420,-0.892038,0.000000,0.000000,0.000000,-1,0.010720,-0.003472,0.000024,0.000293,0.001661,-0.002600
"2018-06-06 19:16:23.655 +0000",1528312583.655303,0.468450,0.023716,0.201688,0.451376,-0.023714,-0.892018,0.000000,0.000000,0.000000,-1,-0.005066,0.001959,0.003302,-0.000815,-0.002546,-0.000332
"2018-06-06 19:16:23.746 +0000",1528312583.745965,0.468476,0.023414,0.202150,0.451403,-0.023412,-0.892012,0.000000,0.000000,0.000000,-1,-0.005079,-0.001344,0.005444,-0.003542,0.002858,-0.001726
"2018-06-06 19:16:23.837 +0000",1528312583.836627,0.468500,0.023534,0.202561,0.451423,-0.023532,-0.891999,0.000000,0.000000,0.000000,-1,0.002281,-0.000221,0.004355,-0.001396,0.004672,-0.001205
"2018-06-06 19:16:23.927 +0000",1528312583.927288,0.468517,0.023953,0.202469,0.451433,-0.023951,-0.891982,0.000000,0.000000,0.000000,-1,0.005488,0.000917,-0.003179,-0.001711,0.001093,0.000503
"2018-06-06 19:16:24.018 +0000",1528312584.017950,0.468511,0.023934,0.202276,0.451428,-0.023932,-0.891986,0.000000,0.000000,0.000000,-1,-0.000840,0.001984,0.000066,0.000354,-0.000299,0.000811
"2018-06-06 19:16:24.109 +0000",1528312584.108612,0.468349,0.023741,0.202533,0.451286,-0.023739,-0.892063,0.000000,0.000000,0.000000,-1,-0.001911,-0.001326,0.003286,-0.002647,0.002941,-0.001019
"2018-06-06 19:16:24.199 +0000",1528312584.199273,0.468251,0.023769,0.202729,0.451198,-0.023767,-0.892106,0.000000,0.000000,0.000000,-1,0.001247,-0.000215,0.002206,-0.002254,0.003763,-0.001952
"2018-06-06 19:16:24.290 +0000",1528312584.289935,0.468153,0.023941,0.202656,0.451109,-0.023939,-0.892147,0.000000,0.000000,0.000000,-1,0.000214,-0.001306,0.000054,-0.002989,0.000486,-0.002278
"2018-06-06 19:16:24.381 +0000",1528312584.380597,0.468171,0.023965,0.202533,0.451125,-0.023963,-0.892138,0.000000,0.000000,0.000000,-1,0.001278,0.001999,-0.002090,-0.000014,-0.000329,-0.000226
"2018-06-06 19:16:24.471 +0000",1528312584.471258,0.468290,0.023837,0.202652,0.451233,-0.023834,-0.892087,0.000000,0.000000,0.000000,-1,-0.001921,-0.000233,0.004365,-0.001739,0.000061,0.001355
"2018-06-06 19:16:24.562 +0000",1528312584.561920,0.468317,0.023924,0.202818,0.451255,-0.023922,-0.892073,0.000000,0.000000,0.000000,-1,0.000186,0.001973,0.003290,-0.004554,0.000134,-0.000947
"2018-06-06 19:16:24.653 +0000",1528312584.652582,0.468485,0.023923,0.202849,0.451405,-0.023921,-0.891998,0.000000,0.000000,0.000000,-1,0.002303,0.001989,0.001135,-0.000874,0.001261,-0.000169
"2018-06-06 19:16:24.743 +0000",1528312584.743243,0.468519,0.023932,0.202739,0.451436,-0.023929,-0.891982,0.000000,0.000000,0.000000,-1,0.000230,-0.000199,-0.002093,-0.001714,0.000690,-0.000154
"2018-06-06 19:16:24.834 +0000",1528312584.833905,0.468553,0.023799,0.202696,0.451467,-0.023797,-0.891969,0.000000,0.000000,0.000000,-1,-0.001880,0.000889,-0.001010,-0.000692,0.001367,-0.002623
"2018-06-06 19:16:24.925 +0000",1528312584.924567,0.468459,0.023807,0.202732,0.451384,-0.023805,-0.892011,0.000000,0.000000,0.000000,-1,0.003365,-0.001297,0.000047,-0.000777,0.001878,-0.001299
"2018-06-06 19:16:25.015 +0000",1528312585.015230,0.468385,0.023761,0.202808,0.451318,-0.023759,-0.892046,0.000000,0.000000,0.000000,-1,-0.002945,-0.001319,0.001137,-0.002603,0.002397,0.000444
"2018-06-06 19:16:25.106 +0000",1528312585.105891,0.468343,0.023782,0.202838,0.451280,-0.023780,-0.892065,0.000000,0.000000,0.000000,-1,0.000221,-0.000203,-0.001018,-0.000124,0.002372,-0.002177
"2018-06-06 19:16:25.197 +0000",1528312585.196553,0.468334,0.023886,0.202752,0.451271,-0.023884,-0.892066,0.000000,0.000000,0.000000,-1,0.003365,-0.001297,0.000047,-0.001625,0.001651,-0.001565
"2018-06-06 19:16:25.287 +0000",1528312585.287215,0.468443,0.023795,0.202712,0.451369,-0.023793,-0.892019,0.000000,0.000000,0.000000,-1,-0.000830,0.000892,-0.001012,0.000001,0.001622,-0.001810
"2018-06-06 19:16:25.378 +0000",1528312585.377876,0.468527,0.023734,0.202822,0.451445,-0.023732,-0.891982,0.000000,0.000000,0.000000,-1,0.000210,0.003085,0.000067,-0.002882,0.001164,0.000839
"2018-06-06 19:16:25.469 +0000",1528312585.468538,0.468539,0.023715,0.202927,0.451456,-0.023713,-0.891978,0.000000,0.000000,0.000000,-1,-0.001883,0.003084,-0.001003,-0.000101,0.003007,-0.002660
"2018-06-06 19:16:25.559 +0000",1528312585.559200,0.468590,0.023757,0.202964,0.451501,-0.023755,-0.891953,0.000000,0.000000,0.000000,-1,0.001255,-0.000209,0.001131,-0.000635,0.001828,-0.001067
"2018-06-06 19:16:25.650 +0000",1528312585.649861,0.468597,0.023780,0.202970,0.451507,-0.023778,-0.891950,0.000000,0.000000,0.000000,-1,0.000332,-0.000453,0.001150,-0.001006,0.001363,-0.001086
"2018-06-06 19:16:25.741 +0000",1528312585.740523,0.468561,0.023790,0.203069,0.451475,-0.023788,-0.891966,0.000000,0.000000,0.000000,-1,-0.000718,-0.000456,0.001152,-0.000822,0.001708,-0.002306
"2018-06-06 19:16:25.831 +0000",1528312585.831185,0.468426,0.023804,0.203165,0.451354,-0.023802,-0.892026,0.000000,0.000000,0.000000,-1,-0.000727,-0.000461,0.002228,-0.001617,0.002699,-0.000659
"2018-06-06 19:16:25.922 +0000",1528312585.921846,0.468362,0.023874,0.203208,0.451297,-0.023872,-0.892054,0.000000,0.000000,0.000000,-1,0.001391,-0.000446,0.000072,-0.001132,0.001274,-0.000723
"2018-06-06 19:16:26.013 +0000",1528312586.012508,0.468237,0.023784,0.203143,0.451186,-0.023782,-0.892112,0.000000,0.000000,0.000000,-1,-0.001744,-0.000446,-0.002073,-0.001097,0.000314,-0.001427
"2018-06-06 19:16:26.103 +0000",1528312586.103170,0.468259,0.023554,0.203147,0.451208,-0.023551,-0.892107,0.000000,0.000000,0.000000,-1,-0.000709,-0.001550,0.000073,-0.002187,0.001945,-0.001325
"2018-06-06 19:16:26.194 +0000",1528312586.193831,0.468318,0.023473,0.203163,0.451261,-0.023470,-0.892082,0.000000,0.000000,0.000000,-1,0.000347,0.000653,-0.000999,-0.000700,0.002307,-0.000603
"2018-06-06 19:16:26.284 +0000",1528312586.284493,0.468251,0.023471,0.203126,0.451202,-0.023468,-0.892112,0.000000,0.000000,0.000000,-1,-0.003846,0.000646,-0.002065,-0.003738,-0.000641,-0.001397
"2018-06-06 19:16:26.375 +0000",1528312586.375155,0.468392,0.023107,0.202979,0.451331,-0.023105,-0.892057,0.000000,0.000000,0.000000,-1,0.000359,-0.002635,-0.002084,-0.002539,0.002842,-0.000064
"2018-06-06 19:16:26.466 +0000",1528312586.465816,0.468452,0.023031,0.202755,0.451385,-0.023029,-0.892031,0.000000,0.000000,0.000000,-1,0.001413,0.001763,-0.003149,0.000382,0.001178,-0.000486
"2018-06-06 19:16:26.556 +0000",1528312586.556478,0.468438,0.022988,0.202527,0.451373,-0.022986,-0.892038,0.000000,0.000000,0.000000,-1,0.000366,-0.001533,-0.003156,-0.000338,0.000754,-0.000341
"2018-06-06 19:16:26.647 +0000",1528312586.647140,0.468312,0.022809,0.202206,0.451263,-0.022807,-0.892099,0.000000,0.000000,0.000000,-1,-0.000476,-0.003671,-0.002075,-0.001404,0.002177,-0.001014
"2018-06-06 19:16:26.738 +0000",1528312586.737801,0.468180,0.022615,0.202244,0.451147,-0.022614,-0.892162,0.000000,0.000000,0.000000,-1,0.000555,-0.000383,0.000083,-0.001211,0.003677,-0.001835
"2018-06-06 19:16:26.828 +0000",1528312586.828463,0.468002,0.022917,0.202478,0.450985,-0.022915,-0.892237,0.000000,0.000000,0.000000,-1,0.000512,0.001789,0.005468,-0.000652,0.002147,-0.000601
"2018-06-06 19:16:26.919 +0000",1528312586.919125,0.467905,0.023115,0.202601,0.450896,-0.023113,-0.892276,0.000000,0.000000,0.000000,-1,-0.000486,-0.001480,-0.000993,-0.000655,0.001552,0.000949
"2018-06-06 19:16:27.010 +0000",1528312587.009786,0.467757,0.023041,0.202640,0.450765,-0.023039,-0.892344,0.000000,0.000000,0.000000,-1,-0.002589,0.000710,-0.000982,0.001643,0.003706,-0.002843
"2018-06-06 19:16:27.100 +0000",1528312587.100448,0.467924,0.023201,0.203027,0.450913,-0.023199,-0.892266,0.000000,0.000000,0.000000,-1,-0.000521,0.000698,0.003316,-0.004029,0.000967,-0.000557
"2018-06-06 19:16:27.191 +0000",1528312587.191110,0.468016,0.023465,0.203246,0.450992,-0.023463,-0.892219,0.000000,0.000000,0.000000,-1,0.001586,0.002904,0.002242,0.000424,0.003032,-0.001092
"2018-06-06 19:16:27.282 +0000",1528312587.281771,0.468016,0.023660,0.203383,0.450990,-0.023657,-0.892215,0.000000,0.000000,0.000000,-1,0.000556,-0.001481,0.000080,0.001219,0.000708,-0.000989
"2018-06-06 19:16:27.372 +0000",1528312587.372433,0.467936,0.023649,0.203469,0.450918,-0.023647,-0.892251,0.000000,0.000000,0.000000,-1,-0.003662,-0.001502,0.002241,-0.001593,0.002468,-0.000327
