timestamp,timeIntervalSince1970,attitude.roll,attitude.pitch,attitude.yaw,gravity.x,gravity.y,gravity.z,magneticField.x,magneticField.y,magneticField.z,magneticField.accuracy,rotationRate.x,rotationRate.y,rotationRate.z,userAcceleration.x,userAcceleration.y,userAcceleration.z
"2018-06-06 19:09:27.529 +0000",1528312167.528782,-0.202905,0.216589,0.044184,-0.196807,-0.214900,-0.956601,0.000000,0.000000,0.000000,-1,-0.267068,-0.096483,-0.049312,-0.014161,0.045542,-0.067981
"2018-06-06 19:09:27.619 +0000",1528312167.619445,-0.197428,0.183762,0.036126,-0.192845,-0.182729,-0.964065,0.000000,0.000000,0.000000,-1,-0.734660,0.324399,0.060548,0.006520,0.038824,0.056396
"2018-06-06 19:09:27.710 +0000",1528312167.710109,-0.133018,0.101466,0.063990,-0.131944,-0.101292,-0.986068,0.000000,0.000000,0.000000,-1,-1.249949,2.741502,1.074487,0.114305,0.113774,-0.015595
"2018-06-06 19:09:27.801 +0000",1528312167.800773,0.184563,-0.059847,0.155339,0.183188,0.059811,-0.981257,0.000000,0.000000,0.000000,-1,-2.211605,4.493599,1.209788,0.268533,0.080616,0.005732
"2018-06-06 19:09:27.891 +0000",1528312167.891436,0.416327,-0.234922,0.398504,0.393296,0.232767,-0.889459,0.000000,0.000000,0.000000,-1,-3.304164,0.071779,2.056716,-0.072770,0.144858,0.094904
"2018-06-06 19:09:27.982 +0000",1528312167.982100,0.530731,-0.330097,0.648417,0.478836,0.324135,-0.815875,0.000000,0.000000,0.000000,-1,-2.113528,2.172199,1.444830,-0.136170,0.012673,0.190372
"2018-06-06 19:09:28.073 +0000",1528312168.072764,0.808822,-0.408170,0.854997,0.664040,0.396930,-0.633638,0.000000,0.000000,0.000000,-1,-1.396189,1.558624,1.115482,0.068306,-0.013477,-0.089644
"2018-06-06 19:09:28.163 +0000",1528312168.163427,0.940332,-0.409916,0.961922,0.740835,0.398532,-0.540680,0.000000,0.000000,0.000000,-1,-0.203747,0.961462,0.327945,-0.098424,-0.014590,-0.113403
"2018-06-06 19:09:28.254 +0000",1528312168.254091,0.979211,-0.385605,0.975365,0.769107,0.376120,-0.516728,0.000000,0.000000,0.000000,-1,-0.173466,0.072367,0.324214,0.039869,0.040750,0.157368
"2018-06-06 19:09:28.345 +0000",1528312168.344755,1.044351,-0.371594,1.053583,0.805589,0.363101,-0.468169,0.000000,0.000000,0.000000,-1,-0.434298,0.404201,0.602217,-0.122529,0.058728,-0.199998
"2018-06-06 19:09:28.435 +0000",1528312168.435418,1.105306,-0.354209,1.136453,0.838127,0.346848,-0.420996,0.000000,0.000000,0.000000,-1,-0.593131,0.880240,1.394649,0.070671,-0.126435,0.093329
"2018-06-06 19:09:28.526 +0000",1528312168.526082,1.148995,-0.287714,1.220455,0.874849,0.283761,-0.392576,0.000000,0.000000,0.000000,-1,-0.470768,-0.890086,0.861077,-0.312227,0.031195,-0.061892
"2018-06-06 19:09:28.617 +0000",1528312168.616745,1.026054,-0.244594,1.259425,0.829804,0.242162,-0.502773,0.000000,0.000000,0.000000,-1,0.147805,-1.091456,0.074929,0.162780,-0.294820,0.152371
"2018-06-06 19:09:28.707 +0000",1528312168.707409,0.963791,-0.234561,1.235270,0.798867,0.232416,-0.554790,0.000000,0.000000,0.000000,-1,0.710854,-0.623631,0.144918,0.321204,0.187186,-0.086186
"2018-06-06 19:09:28.798 +0000",1528312168.798073,0.847133,-0.147626,1.142488,0.741233,0.147090,-0.654932,0.000000,0.000000,0.000000,-1,0.968604,-1.014794,0.138887,1.040902,-0.232265,-0.170996
"2018-06-06 19:09:28.889 +0000",1528312168.888736,0.811911,-0.072354,1.085931,0.723704,0.072291,-0.686312,0.000000,0.000000,0.000000,-1,0.589929,-0.672369,0.168717,-0.029048,-0.050776,0.045642
"2018-06-06 19:09:28.979 +0000",1528312168.979400,0.767997,-0.054299,1.035954,0.693672,0.054272,-0.718243,0.000000,0.000000,0.000000,-1,0.668770,-0.069078,-0.187898,0.053521,-0.059780,0.053692
"2018-06-06 19:09:29.070 +0000",1528312169.070064,0.852246,0.072761,0.990275,0.750768,-0.072697,-0.656552,0.000000,0.000000,0.000000,-1,0.620067,0.554909,0.195882,-0.012227,0.012104,-0.006549
"2018-06-06 19:09:29.161 +0000",1528312169.160727,0.831751,0.065002,0.938318,0.737550,-0.064956,-0.672160,0.000000,0.000000,0.000000,-1,1.386710,-3.448848,-1.348163,-0.126527,-0.214387,-0.179723
"2018-06-06 19:09:29.251 +0000",1528312169.251391,0.817014,0.028995,0.919154,0.728798,-0.028991,-0.684113,0.000000,0.000000,0.000000,-1,-0.560051,0.492615,-0.129668,0.004539,-0.323365,0.051941
"2018-06-06 19:09:29.342 +0000",1528312169.342054,0.860035,0.070002,0.935665,0.756009,-0.069944,-0.650812,0.000000,0.000000,0.000000,-1,-0.066845,-0.129065,0.279366,-0.118969,-0.116793,-0.036505
"2018-06-06 19:09:29.433 +0000",1528312169.432718,0.853400,0.026496,0.920740,0.753254,-0.026493,-0.657194,0.000000,0.000000,0.000000,-1,-0.613976,-0.236882,-0.813623,-0.004155,-0.176983,-0.061098
"2018-06-06 19:09:29.523 +0000",1528312169.523382,0.826003,-0.007183,0.907498,0.735208,0.007183,-0.677802,0.000000,0.000000,0.000000,-1,0.081368,0.029143,-0.439041,0.008398,0.055683,0.072608
"2018-06-06 19:09:29.614 +0000",1528312169.614045,0.811749,-0.000363,0.925094,0.725491,0.000363,-0.688230,0.000000,0.000000,0.000000,-1,-0.047991,-0.118581,0.148127,-0.013760,-0.238690,-0.008288
"2018-06-06 19:09:29.705 +0000",1528312169.704710,0.794281,-0.019490,0.928077,0.713224,0.019489,-0.700664,0.000000,0.000000,0.000000,-1,-0.320665,-0.653957,-0.113112,0.066042,-0.117221,0.041744
"2018-06-06 19:09:29.795 +0000",1528312169.795372,0.756303,-0.010346,0.922313,0.686200,0.010346,-0.727338,0.000000,0.000000,0.000000,-1,0.107033,-0.529686,0.117534,-0.070904,-0.032746,0.042799
"2018-06-06 19:09:29.886 +0000",1528312169.886036,0.706083,-0.074095,0.960782,0.647077,0.074027,-0.758821,0.000000,0.000000,0.000000,-1,-0.943244,-0.742931,0.273136,0.191256,0.120477,-0.619048
"2018-06-06 19:09:29.977 +0000",1528312169.976700,0.707240,-0.024988,0.941825,0.649535,0.024985,-0.759920,0.000000,0.000000,0.000000,-1,0.218877,-0.044778,0.264976,0.014863,0.021295,-0.001432
"2018-06-06 19:09:30.067 +0000",1528312170.067363,0.677362,-0.012888,0.908098,0.626687,0.012888,-0.779163,0.000000,0.000000,0.000000,-1,0.349012,-0.034971,-0.679710,0.135978,-0.146677,-0.023434
"2018-06-06 19:09:30.158 +0000",1528312170.158027,0.691966,-0.072617,0.811749,0.636370,0.072553,-0.767963,0.000000,0.000000,0.000000,-1,0.441505,-0.868653,-1.816077,-0.095904,-0.025694,-0.107815
"2018-06-06 19:09:30.249 +0000",1528312170.248690,0.486988,-0.132187,0.629913,0.463884,0.131802,-0.876036,0.000000,0.000000,0.000000,-1,0.194744,-1.555764,-1.740064,0.064879,0.097950,0.121703
"2018-06-06 19:09:30.339 +0000",1528312170.339355,0.339099,-0.162130,0.453148,0.328276,0.161420,-0.930687,0.000000,0.000000,0.000000,-1,0.492728,-0.921937,-1.641019,0.096239,-0.078062,-0.109779
"2018-06-06 19:09:30.430 +0000",1528312170.430018,0.251234,-0.177501,0.325984,0.244693,0.176570,-0.953388,0.000000,0.000000,0.000000,-1,0.015396,-0.480466,-0.949153,0.015301,-0.019572,0.002765
"2018-06-06 19:09:30.521 +0000",1528312170.520681,0.218874,-0.194460,0.238191,0.213038,0.193237,-0.957744,0.000000,0.000000,0.000000,-1,0.241373,0.402214,-1.078332,0.152593,-0.048492,0.092128
"2018-06-06 19:09:30.611 +0000",1528312170.611345,0.214388,-0.188154,0.157696,0.208995,0.187045,-0.959862,0.000000,0.000000,0.000000,-1,0.216924,-0.145607,-0.562484,0.057912,0.143445,-0.064674
"2018-06-06 19:09:30.702 +0000",1528312170.702008,0.209637,-0.188629,0.132480,0.204414,0.187512,-0.960757,0.000000,0.000000,0.000000,-1,-0.139573,0.020542,0.157346,0.009927,0.128192,-0.011441
"2018-06-06 19:09:30.793 +0000",1528312170.792672,0.247023,-0.205231,0.197807,0.239387,0.203794,-0.949295,0.000000,0.000000,0.000000,-1,-0.382940,0.789207,1.252995,0.051201,0.074191,0.102295
"2018-06-06 19:09:30.883 +0000",1528312170.883335,0.385213,-0.210438,0.353478,0.367467,0.208888,-0.906274,0.000000,0.000000,0.000000,-1,-0.640267,1.426485,1.994406,-0.034886,-0.090938,-0.000174
"2018-06-06 19:09:30.974 +0000",1528312170.973999,0.433432,-0.205967,0.399676,0.411111,0.204513,-0.888348,0.000000,0.000000,0.000000,-1,0.002715,0.091548,-0.189131,0.025672,0.007309,0.061489
"2018-06-06 19:09:31.065 +0000",1528312171.064662,0.432485,-0.206247,0.392036,0.410245,0.204788,-0.888685,0.000000,0.000000,0.000000,-1,0.066049,-0.025101,-0.078824,0.010516,0.000855,0.006269
"2018-06-06 19:09:31.155 +0000",1528312171.155326,0.422890,-0.203981,0.385389,0.401889,0.202569,-0.893001,0.000000,0.000000,0.000000,-1,0.183287,-0.261614,-0.407852,0.100309,-0.026758,0.027980
"2018-06-06 19:09:31.246 +0000",1528312171.245989,0.378184,-0.197134,0.359899,0.362082,0.195860,-0.911337,0.000000,0.000000,0.000000,-1,-0.069870,-0.611652,-0.087748,-0.039435,-0.027525,0.017172
"2018-06-06 19:09:31.337 +0000",1528312171.336653,0.376035,-0.186412,0.355361,0.360873,0.185335,-0.914014,0.000000,0.000000,0.000000,-1,0.165499,0.234202,-0.067540,-0.021655,-0.027025,0.008664
"2018-06-06 19:09:31.427 +0000",1528312171.427316,0.373596,-0.179683,0.333357,0.359090,0.178718,-0.916032,0.000000,0.000000,0.000000,-1,0.024452,0.079928,-0.282793,-0.117207,0.040734,0.007462
"2018-06-06 19:09:31.518 +0000",1528312171.517979,0.391747,-0.186681,0.322785,0.375170,0.185599,-0.908185,0.000000,0.000000,0.000000,-1,0.171786,0.353360,0.056494,0.090086,0.078012,-0.028430
"2018-06-06 19:09:31.609 +0000",1528312171.608643,0.395473,-0.193771,0.334527,0.378035,0.192561,-0.905544,0.000000,0.000000,0.000000,-1,-0.114885,-0.116390,0.105263,-0.015287,-0.057459,-0.001927
"2018-06-06 19:09:31.699 +0000",1528312171.699306,0.400698,-0.196166,0.328583,0.382580,0.194910,-0.903129,0.000000,0.000000,0.000000,-1,0.077108,0.141657,-0.308549,0.104053,0.074728,-0.008477
"2018-06-06 19:09:31.790 +0000",1528312171.789970,0.392466,-0.212845,0.330675,0.373837,0.211242,-0.903118,0.000000,0.000000,0.000000,-1,-0.287661,-0.153400,0.177619,0.003666,-0.163543,0.007885
"2018-06-06 19:09:31.881 +0000",1528312171.880633,0.395586,-0.217883,0.341391,0.376238,0.216163,-0.900954,0.000000,0.000000,0.000000,-1,-0.261399,0.058082,0.287890,-0.102282,-0.016837,-0.064851
"2018-06-06 19:09:31.971 +0000",1528312171.971297,0.448869,-0.194325,0.370121,0.425779,0.193105,-0.883981,0.000000,0.000000,0.000000,-1,0.459039,0.871708,0.199329,0.095675,0.140086,-0.100486
"2018-06-06 19:09:32.062 +0000",1528312172.061960,0.482641,-0.174190,0.378165,0.457096,0.173310,-0.872368,0.000000,0.000000,0.000000,-1,-0.253812,0.490929,0.477370,-0.137958,-0.211778,0.042641
"2018-06-06 19:09:32.153 +0000",1528312172.152623,0.500135,-0.177852,0.384965,0.471980,0.176916,-0.863675,0.000000,0.000000,0.000000,-1,0.046551,-0.156178,0.014424,0.047140,0.064265,-0.043658
"2018-06-06 19:09:32.243 +0000",1528312172.243287,0.496877,-0.173657,0.385307,0.469513,0.172786,-0.865853,0.000000,0.000000,0.000000,-1,0.020878,-0.009326,0.056860,0.018936,0.012410,0.007470
"2018-06-06 19:09:32.334 +0000",1528312172.333950,0.499092,-0.168384,0.391423,0.471859,0.167589,-0.865599,0.000000,0.000000,0.000000,-1,0.026805,0.020141,0.102109,-0.041652,-0.005633,-0.020601
"2018-06-06 19:09:32.425 +0000",1528312172.424614,0.503925,-0.157953,0.398409,0.476855,0.157297,-0.864792,0.000000,0.000000,0.000000,-1,0.134470,0.055304,0.165428,-0.026187,-0.012674,-0.011612
"2018-06-06 19:09:32.515 +0000",1528312172.515277,0.512379,-0.136472,0.398381,0.485693,0.136049,-0.863476,0.000000,0.000000,0.000000,-1,0.270263,0.301874,0.095918,0.012018,0.022078,-0.014743
"2018-06-06 19:09:32.606 +0000",1528312172.605940,0.542520,-0.110012,0.393358,0.513175,0.109790,-0.851232,0.000000,0.000000,0.000000,-1,0.246648,0.356448,0.155292,0.012414,-0.029468,-0.016245
"2018-06-06 19:09:32.697 +0000",1528312172.696604,0.559276,-0.089885,0.398134,0.528431,0.089764,-0.844217,0.000000,0.000000,0.000000,-1,0.025547,0.098007,0.119550,-0.006992,-0.051861,0.032663
"2018-06-06 19:09:32.787 +0000",1528312172.787267,0.573519,-0.094632,0.407816,0.540163,0.094490,-0.836238,0.000000,0.000000,0.000000,-1,-0.248726,0.180119,-0.009736,-0.028322,-0.041664,0.044963
"2018-06-06 19:09:32.878 +0000",1528312172.877930,0.580565,-0.120427,0.410824,0.544523,0.120137,-0.830096,0.000000,0.000000,0.000000,-1,-0.249596,0.008922,-0.285597,-0.029371,-0.028324,-0.005155
"2018-06-06 19:09:32.969 +0000",1528312172.968595,0.561182,-0.144986,0.384679,0.526603,0.144479,-0.837743,0.000000,0.000000,0.000000,-1,0.000240,-0.283145,-0.367692,0.081445,0.012550,-0.065303
"2018-06-06 19:09:33.059 +0000",1528312173.059258,0.550941,-0.137619,0.370130,0.518539,0.137185,-0.843976,0.000000,0.000000,0.000000,-1,0.170418,-0.353526,-0.225226,-0.118301,-0.113549,0.069867
"2018-06-06 19:09:33.150 +0000",1528312173.149920,0.539167,-0.149344,0.358977,0.507706,0.148789,-0.848584,0.000000,0.000000,0.000000,-1,-0.158031,0.093802,-0.046767,0.061645,0.031325,0.010648
"2018-06-06 19:09:33.241 +0000",1528312173.240584,0.552952,-0.159022,0.363139,0.518574,0.158353,-0.840240,0.000000,0.000000,0.000000,-1,-0.134031,0.035571,-0.019024,0.030528,-0.005338,0.027099
"2018-06-06 19:09:33.331 +0000",1528312173.331247,0.555040,-0.169322,0.369245,0.519441,0.168514,-0.837725,0.000000,0.000000,0.000000,-1,-0.094364,-0.008386,0.018404,0.008697,0.015462,-0.022444
"2018-06-06 19:09:33.422 +0000",1528312173.421910,0.555479,-0.173604,0.374539,0.519423,0.172733,-0.836876,0.000000,0.000000,0.000000,-1,-0.063967,-0.020417,0.027981,-0.022978,-0.007694,-0.025078
"2018-06-06 19:09:33.513 +0000",1528312173.512574,0.556914,-0.175090,0.380683,0.520487,0.174196,-0.835911,0.000000,0.000000,0.000000,-1,-0.045235,0.023478,0.045281,0.004141,-0.003939,0.007100
"2018-06-06 19:09:33.603 +0000",1528312173.603236,0.557601,-0.175503,0.383932,0.521023,0.174604,-0.835492,0.000000,0.000000,0.000000,-1,0.012040,-0.081499,-0.014316,0.071247,-0.000943,0.012769
"2018-06-06 19:09:33.694 +0000",1528312173.693899,0.539420,-0.173137,0.376253,0.505959,0.172273,-0.845178,0.000000,0.000000,0.000000,-1,0.025098,-0.225098,-0.055638,0.027366,-0.025544,0.019327
"2018-06-06 19:09:33.785 +0000",1528312173.784562,0.532160,-0.177601,0.376819,0.499415,0.176669,-0.848158,0.000000,0.000000,0.000000,-1,-0.104831,-0.063307,0.020425,-0.012751,-0.034442,0.001875
"2018-06-06 19:09:33.875 +0000",1528312173.875226,0.535866,-0.184905,0.386759,0.501882,0.183853,-0.845169,0.000000,0.000000,0.000000,-1,-0.121043,0.058314,0.064917,-0.022939,-0.000519,-0.011688
"2018-06-06 19:09:33.966 +0000",1528312173.965889,0.541947,-0.188593,0.395597,0.506659,0.187477,-0.841515,0.000000,0.000000,0.000000,-1,-0.056925,0.061813,0.058327,-0.006766,0.007347,-0.007469
"2018-06-06 19:09:34.057 +0000",1528312174.056552,0.548599,-0.190005,0.401140,0.512107,0.188863,-0.837900,0.000000,0.000000,0.000000,-1,-0.033635,0.078452,0.032506,-0.000251,0.009882,0.002603
"2018-06-06 19:09:34.147 +0000",1528312174.147215,0.556894,-0.191283,0.405990,0.518911,0.190119,-0.833417,0.000000,0.000000,0.000000,-1,-0.019962,0.076304,0.030318,0.010142,0.010596,-0.006121
"2018-06-06 19:09:34.238 +0000",1528312174.237878,0.557945,-0.189753,0.404902,0.519940,0.188617,-0.833117,0.000000,0.000000,0.000000,-1,0.040269,-0.014493,-0.005581,0.004138,-0.005175,0.007724
"2018-06-06 19:09:34.329 +0000",1528312174.328542,0.557403,-0.188283,0.403628,0.519635,0.187173,-0.833633,0.000000,0.000000,0.000000,-1,-0.007140,0.013853,0.009669,0.019198,-0.010918,0.013015
"2018-06-06 19:09:34.419 +0000",1528312174.419205,0.560874,-0.189506,0.408096,0.522403,0.188374,-0.831630,0.000000,0.000000,0.000000,-1,-0.055578,0.002668,0.026958,0.022503,-0.008534,-0.008855
"2018-06-06 19:09:34.510 +0000",1528312174.509868,0.558160,-0.190459,0.410150,0.520049,0.189309,-0.832892,0.000000,0.000000,0.000000,-1,-0.013417,-0.054246,0.014866,-0.014175,0.002265,-0.000894
"2018-06-06 19:09:34.601 +0000",1528312174.600533,0.553718,-0.189557,0.410443,0.516433,0.188423,-0.835339,0.000000,0.000000,0.000000,-1,0.015053,-0.040925,-0.001295,-0.006637,-0.010735,-0.004779
"2018-06-06 19:09:34.691 +0000",1528312174.691196,0.551126,-0.189240,0.409857,0.514298,0.188112,-0.836726,0.000000,0.000000,0.000000,-1,-0.013337,0.007306,-0.003241,-0.002335,-0.008684,0.001460
"2018-06-06 19:09:34.782 +0000",1528312174.781860,0.554747,-0.191962,0.411932,0.517053,0.190786,-0.834419,0.000000,0.000000,0.000000,-1,-0.062871,0.069681,0.011037,0.005133,-0.004491,0.007698
"2018-06-06 19:09:34.873 +0000",1528312174.872523,0.560907,-0.195667,0.416196,0.521803,0.194421,-0.830615,0.000000,0.000000,0.000000,-1,-0.036537,0.009387,0.008650,0.002794,0.003730,-0.003156
"2018-06-06 19:09:34.963 +0000",1528312174.963186,0.559627,-0.196565,0.416778,0.520647,0.195302,-0.831133,0.000000,0.000000,0.000000,-1,-0.002840,-0.027816,0.002011,-0.003862,0.000209,-0.000761
"2018-06-06 19:09:35.054 +0000",1528312175.053849,0.557330,-0.196371,0.417204,0.518756,0.195112,-0.832359,0.000000,0.000000,0.000000,-1,-0.001868,-0.015774,0.010649,-0.003803,-0.004270,-0.000481
"2018-06-06 19:09:35.145 +0000",1528312175.144512,0.557171,-0.195727,0.418210,0.518691,0.194480,-0.832548,0.000000,0.000000,0.000000,-1,0.002326,0.009495,0.008562,-0.003783,-0.000907,-0.001803
"2018-06-06 19:09:35.235 +0000",1528312175.235175,0.557794,-0.194573,0.417932,0.519327,0.193348,-0.832415,0.000000,0.000000,0.000000,-1,0.017032,0.016127,0.007472,-0.000376,-0.000721,-0.000043
"2018-06-06 19:09:35.326 +0000",1528312175.325839,0.559087,-0.193494,0.417796,0.520514,0.192289,-0.831919,0.000000,0.000000,0.000000,-1,0.012873,0.015041,0.002100,0.001474,-0.002149,0.003824
"2018-06-06 19:09:35.417 +0000",1528312175.416502,0.559612,-0.192583,0.417262,0.521044,0.191395,-0.831794,0.000000,0.000000,0.000000,-1,0.007688,-0.002511,-0.004393,0.004683,-0.005177,0.004691
"2018-06-06 19:09:35.507 +0000",1528312175.507164,0.559077,-0.192271,0.416840,0.520630,0.191088,-0.832123,0.000000,0.000000,0.000000,-1,-0.001751,-0.008021,-0.005463,0.001693,-0.004641,-0.001694
"2018-06-06 19:09:35.598 +0000",1528312175.597827,0.559285,-0.192728,0.417493,0.520756,0.191537,-0.831941,0.000000,0.000000,0.000000,-1,-0.010229,0.000701,0.003187,0.002285,-0.006249,0.003846
"2018-06-06 19:09:35.688 +0000",1528312175.688490,0.559414,-0.193268,0.418156,0.520809,0.192067,-0.831786,0.000000,0.000000,0.000000,-1,-0.009186,-0.000398,0.004257,0.000797,-0.000493,-0.001482
"2018-06-06 19:09:35.779 +0000",1528312175.779153,0.559327,-0.193425,0.418706,0.520720,0.192221,-0.831806,0.000000,0.000000,0.000000,-1,-0.000758,-0.009148,0.002061,0.002519,-0.000891,0.002124
"2018-06-06 19:09:35.870 +0000",1528312175.869816,0.558742,-0.193235,0.418802,0.520253,0.192035,-0.832141,0.000000,0.000000,0.000000,-1,0.003439,-0.004745,0.002064,-0.001043,-0.002993,-0.000165
"2018-06-06 19:09:35.960 +0000",1528312175.960479,0.558773,-0.193145,0.418905,0.520288,0.191947,-0.832139,0.000000,0.000000,0.000000,-1,-0.000775,0.008416,0.002112,0.002066,-0.000495,-0.000166
"2018-06-06 19:09:36.051 +0000",1528312176.051142,0.558930,-0.192754,0.418887,0.520459,0.191563,-0.832121,0.000000,0.000000,0.000000,-1,-0.000749,-0.001455,-0.000068,0.000721,-0.005756,0.001036
"2018-06-06 19:09:36.142 +0000",1528312176.141805,0.559313,-0.192840,0.419321,0.520769,0.191647,-0.831908,0.000000,0.000000,0.000000,-1,-0.001835,0.001818,0.004247,0.003050,0.000401,0.003111
"2018-06-06 19:09:36.232 +0000",1528312176.232468,0.559234,-0.192649,0.419509,0.520722,0.191460,-0.831980,0.000000,0.000000,0.000000,-1,0.002403,-0.002544,-0.000078,0.000518,-0.002388,0.000132
"2018-06-06 19:09:36.323 +0000",1528312176.323132,0.559201,-0.192519,0.419438,0.520708,0.191332,-0.832018,0.000000,0.000000,0.000000,-1,0.003436,0.007335,0.001024,0.003309,0.000838,0.000170
"2018-06-06 19:09:36.414 +0000",1528312176.413795,0.559533,-0.192526,0.419601,0.520984,0.191339,-0.831844,0.000000,0.000000,0.000000,-1,-0.003902,0.000732,-0.000054,0.000669,-0.004053,0.003124
"2018-06-06 19:09:36.504 +0000",1528312176.504458,0.560054,-0.192710,0.419957,0.521398,0.191519,-0.831543,0.000000,0.000000,0.000000,-1,-0.001828,0.002922,0.002854,0.000437,0.001642,0.000931
"2018-06-06 19:09:36.595 +0000",1528312176.595121,0.559904,-0.192558,0.420014,0.521289,0.191370,-0.831646,0.000000,0.000000,0.000000,-1,0.002396,-0.003644,0.000674,0.001142,-0.000238,-0.001102
"2018-06-06 19:09:36.686 +0000",1528312176.685784,0.559909,-0.192277,0.419923,0.521321,0.191094,-0.831689,0.000000,0.000000,0.000000,-1,0.000270,0.013909,0.001806,0.002467,-0.002816,0.003564
"2018-06-06 19:09:36.776 +0000",1528312176.776447,0.560075,-0.192426,0.419899,0.521444,0.191240,-0.831578,0.000000,0.000000,0.000000,-1,0.000309,-0.000348,-0.001463,0.001245,-0.002398,0.001561
"2018-06-06 19:09:36.867 +0000",1528312176.867110,0.560273,-0.192640,0.420033,0.521587,0.191450,-0.831440,0.000000,0.000000,0.000000,-1,-0.002868,0.000728,0.001775,0.003529,-0.001006,0.000996
"2018-06-06 19:09:36.958 +0000",1528312176.957773,0.560398,-0.192846,0.420267,0.521670,0.191653,-0.831342,0.000000,0.000000,0.000000,-1,-0.003902,0.000734,-0.000374,0.002866,-0.001483,0.000607
"2018-06-06 19:09:37.048 +0000",1528312177.048436,0.560027,-0.192981,0.420285,0.521348,0.191786,-0.831513,0.000000,0.000000,0.000000,-1,0.001382,-0.006922,-0.003636,0.000991,-0.004225,0.000001
"2018-06-06 19:09:37.139 +0000",1528312177.139099,0.560068,-0.192744,0.420044,0.521406,0.191553,-0.831530,0.000000,0.000000,0.000000,-1,0.006574,0.004043,0.002838,-0.000547,0.002005,-0.001875
"2018-06-06 19:09:37.230 +0000",1528312177.229762,0.559854,-0.191964,0.419666,0.521308,0.190787,-0.831768,0.000000,0.000000,0.000000,-1,0.011858,-0.003613,-0.000423,-0.003165,-0.004492,0.002849
"2018-06-06 19:09:37.320 +0000",1528312177.320425,0.560082,-0.191400,0.419448,0.521554,0.190233,-0.831740,0.000000,0.000000,0.000000,-1,0.005547,0.005151,-0.000383,0.003165,-0.001192,0.001723
"2018-06-06 19:09:37.411 +0000",1528312177.411088,0.560198,-0.191085,0.419198,0.521683,0.189924,-0.831730,0.000000,0.000000,0.000000,-1,0.003448,0.002950,-0.000385,0.001465,-0.002088,-0.000209
"2018-06-06 19:09:37.502 +0000",1528312177.501751,0.559595,-0.189902,0.418138,0.521299,0.188763,-0.832235,0.000000,0.000000,0.000000,-1,0.022383,-0.009065,-0.002615,-0.005507,0.001789,0.002889
"2018-06-06 19:09:37.592 +0000",1528312177.592414,0.558533,-0.188291,0.416969,0.520576,0.187180,-0.833044,0.000000,0.000000,0.000000,-1,0.019204,-0.005794,0.000628,0.003380,-0.003144,0.002890
"2018-06-06 19:09:37.683 +0000",1528312177.683077,0.557988,-0.187911,0.416189,0.520159,0.186807,-0.833388,0.000000,0.000000,0.000000,-1,-0.002817,-0.000344,-0.004684,0.005201,-0.007333,0.005248
"2018-06-06 19:09:37.774 +0000",1528312177.773740,0.558911,-0.188897,0.416620,0.520830,0.187776,-0.832751,0.000000,0.000000,0.000000,-1,-0.012338,0.009478,0.002896,-0.002352,0.002807,-0.000668
"2018-06-06 19:09:37.864 +0000",1528312177.864403,0.559135,-0.189264,0.417238,0.520980,0.188136,-0.832576,0.000000,0.000000,0.000000,-1,0.002390,-0.005845,0.001742,-0.000198,-0.001963,-0.001866
"2018-06-06 19:09:37.955 +0000",1528312177.955066,0.558913,-0.189599,0.417079,0.520762,0.188465,-0.832638,0.000000,0.000000,0.000000,-1,-0.009050,0.004070,-0.014337,0.018147,-0.008259,-0.004291
"2018-06-06 19:09:38.046 +0000",1528312178.045729,0.556913,-0.191185,0.416423,0.518938,0.190022,-0.833423,0.000000,0.000000,0.000000,-1,-0.009982,-0.049687,-0.023097,-0.003862,-0.010609,0.007892
"2018-06-06 19:09:38.136 +0000",1528312178.136392,0.556107,-0.193567,0.418034,0.518025,0.192361,-0.833455,0.000000,0.000000,0.000000,-1,-0.057665,0.048803,0.019249,-0.019383,0.000327,-0.004497
"2018-06-06 19:09:38.227 +0000",1528312178.227054,0.566621,-0.197567,0.424634,0.526342,0.196284,-0.827306,0.000000,0.000000,0.000000,-1,-0.092660,0.153964,0.049753,-0.007131,0.010350,-0.010340
"2018-06-06 19:09:38.318 +0000",1528312178.317717,0.575314,-0.198482,0.427343,0.533416,0.197182,-0.822548,0.000000,0.000000,0.000000,-1,0.048739,0.000947,-0.016630,0.018235,0.010429,0.001046
"2018-06-06 19:09:38.408 +0000",1528312178.408381,0.570673,-0.194190,0.421497,0.530045,0.192972,-0.825720,0.000000,0.000000,0.000000,-1,0.076173,-0.050531,-0.026523,-0.003998,0.000906,-0.000482
"2018-06-06 19:09:38.499 +0000",1528312178.499043,0.567935,-0.190620,0.417912,0.528150,0.189468,-0.827743,0.000000,0.000000,0.000000,-1,0.033936,0.000855,-0.003685,0.005145,-0.012267,0.001785
"2018-06-06 19:09:38.590 +0000",1528312178.589706,0.567410,-0.188683,0.415145,0.527911,0.187565,-0.828329,0.000000,0.000000,0.000000,-1,0.033088,-0.021003,-0.027411,0.019590,-0.006444,0.004720
"2018-06-06 19:09:38.680 +0000",1528312178.680369,0.562029,-0.187965,0.410414,0.523518,0.186860,-0.831271,0.000000,0.000000,0.000000,-1,0.008991,-0.049594,-0.031741,0.002819,-0.001633,0.008182
"2018-06-06 19:09:38.771 +0000",1528312178.771032,0.564537,-0.191640,0.413270,0.525230,0.190469,-0.829370,0.000000,0.000000,0.000000,-1,-0.088230,0.062943,0.031196,-0.015174,-0.007028,0.005746
"2018-06-06 19:09:38.862 +0000",1528312178.861695,0.571406,-0.195605,0.419502,0.530502,0.194360,-0.825101,0.000000,0.000000,0.000000,-1,-0.045032,0.027989,0.018088,0.005905,0.000754,-0.003177
"2018-06-06 19:09:38.952 +0000",1528312178.952358,0.571892,-0.196781,0.420719,0.530779,0.195513,-0.824650,0.000000,0.000000,0.000000,-1,-0.001731,-0.020088,-0.006891,-0.002886,0.001646,-0.002178
"2018-06-06 19:09:39.043 +0000",1528312179.043021,0.569770,-0.196472,0.419141,0.529060,0.195211,-0.825825,0.000000,0.000000,0.000000,-1,0.020376,-0.019999,-0.013395,-0.002738,0.003825,-0.001766
"2018-06-06 19:09:39.134 +0000",1528312179.133684,0.569373,-0.196074,0.418017,0.528774,0.194820,-0.826101,0.000000,0.000000,0.000000,-1,0.002418,0.016140,-0.004644,-0.004024,-0.001171,0.000921
"2018-06-06 19:09:39.224 +0000",1528312179.224346,0.572166,-0.197038,0.419379,0.530978,0.195766,-0.824462,0.000000,0.000000,0.000000,-1,-0.038763,0.035677,0.021323,-0.006701,-0.000102,-0.000153
"2018-06-06 19:09:39.315 +0000",1528312179.315009,0.575024,-0.198252,0.421768,0.533202,0.196955,-0.822741,0.000000,0.000000,0.000000,-1,-0.010237,0.000700,0.003945,0.003648,-0.001078,-0.000287
"2018-06-06 19:09:39.406 +0000",1528312179.405672,0.573926,-0.198102,0.421577,0.532315,0.196809,-0.823351,0.000000,0.000000,0.000000,-1,0.010891,-0.021142,-0.009074,-0.001538,-0.000443,-0.003187
"2018-06-06 19:09:39.496 +0000",1528312179.496336,0.573154,-0.198290,0.421114,0.531658,0.196993,-0.823731,0.000000,0.000000,0.000000,-1,-0.007085,-0.000385,0.003938,0.001896,0.004316,-0.003616
"2018-06-06 19:09:39.587 +0000",1528312179.586998,0.573640,-0.198520,0.421772,0.532034,0.197218,-0.823434,0.000000,0.000000,0.000000,-1,-0.008158,0.006190,0.006111,-0.001791,-0.004210,0.002939
"2018-06-06 19:09:39.678 +0000",1528312179.677661,0.574281,-0.198376,0.422020,0.532577,0.197078,-0.823117,0.000000,0.000000,0.000000,-1,0.009769,0.000787,-0.002551,0.005936,-0.000316,0.001111
"2018-06-06 19:09:39.768 +0000",1528312179.768324,0.573911,-0.197489,0.421304,0.532367,0.196208,-0.823460,0.000000,0.000000,0.000000,-1,0.011844,0.001877,0.000675,-0.001178,0.003652,0.001469
"2018-06-06 19:09:39.859 +0000",1528312179.858986,0.573241,-0.196236,0.420381,0.531948,0.194979,-0.824023,0.000000,0.000000,0.000000,-1,0.020274,-0.009068,-0.001528,-0.002636,-0.004137,-0.000974
"2018-06-06 19:09:39.950 +0000",1528312179.949649,0.572298,-0.194762,0.418707,0.531327,0.193533,-0.824765,0.000000,0.000000,0.000000,-1,0.024530,-0.005732,-0.009057,0.003647,-0.004507,0.002865
"2018-06-06 19:09:40.040 +0000",1528312180.040313,0.571345,-0.193997,0.417324,0.530620,0.192782,-0.825395,0.000000,0.000000,0.000000,-1,0.007717,-0.006881,-0.007947,0.003605,-0.001086,0.001375
"2018-06-06 19:09:40.131 +0000",1528312180.130975,0.571401,-0.194410,0.417317,0.530623,0.193187,-0.825298,0.000000,0.000000,0.000000,-1,-0.009156,0.002921,-0.000350,-0.000350,-0.000194,-0.001850
"2018-06-06 19:09:40.222 +0000",1528312180.221638,0.571415,-0.194685,0.417493,0.530606,0.193458,-0.825246,0.000000,0.000000,0.000000,-1,0.002407,-0.005829,-0.000402,0.000644,-0.001197,-0.002589
"2018-06-06 19:09:40.312 +0000",1528312180.312302,0.571099,-0.194153,0.417452,0.530401,0.192935,-0.825500,0.000000,0.000000,0.000000,-1,0.012910,-0.013489,0.000628,0.003443,0.000653,0.002395
"2018-06-06 19:09:40.403 +0000",1528312180.402964,0.569439,-0.192910,0.416350,0.529158,0.191715,-0.826581,0.000000,0.000000,0.000000,-1,0.024516,-0.016723,-0.005862,-0.001586,-0.002049,-0.001544
"2018-06-06 19:09:40.494 +0000",1528312180.493627,0.568639,-0.192135,0.415213,0.528577,0.190955,-0.827129,0.000000,0.000000,0.000000,-1,0.008758,-0.005786,-0.006871,-0.000852,-0.004340,0.001842
"2018-06-06 19:09:40.584 +0000",1528312180.584290,0.568176,-0.191839,0.414504,0.528225,0.190664,-0.827421,0.000000,0.000000,0.000000,-1,0.006630,-0.002512,-0.003630,0.001454,-0.000723,-0.000231
"2018-06-06 19:09:40.675 +0000",1528312180.674952,0.567957,-0.191445,0.413994,0.528083,0.190278,-0.827600,0.000000,0.000000,0.000000,-1,0.009768,-0.005805,-0.001495,0.000573,0.000823,-0.000784
"2018-06-06 19:09:40.766 +0000",1528312180.765615,0.566905,-0.190587,0.413068,0.527300,0.189435,-0.828293,0.000000,0.000000,0.000000,-1,0.012948,-0.010174,-0.004742,0.002455,-0.004956,0.001587
"2018-06-06 19:09:40.856 +0000",1528312180.856278,0.566751,-0.190142,0.412692,0.527217,0.188998,-0.828445,0.000000,0.000000,0.000000,-1,0.006631,-0.003610,-0.003633,-0.000148,-0.002200,-0.000367
"2018-06-06 19:09:40.947 +0000",1528312180.946940,0.566447,-0.189572,0.412349,0.527024,0.188438,-0.828696,0.000000,0.000000,0.000000,-1,0.008706,-0.002520,-0.000408,-0.001298,-0.001289,-0.002679
"2018-06-06 19:09:41.038 +0000",1528312181.037603,0.566517,-0.188942,0.412261,0.527145,0.187820,-0.828759,0.000000,0.000000,0.000000,-1,0.003424,0.002941,0.002847,0.003480,-0.003158,0.002542
"2018-06-06 19:09:41.128 +0000",1528312181.128266,0.566631,-0.188549,0.412334,0.527279,0.187434,-0.828761,0.000000,0.000000,0.000000,-1,0.003448,-0.004734,0.000673,-0.002713,-0.002848,-0.000341
"2018-06-06 19:09:41.219 +0000",1528312181.218929,0.566735,-0.188348,0.412289,0.527385,0.187237,-0.828738,0.000000,0.000000,0.000000,-1,0.000280,0.004034,0.001782,0.000843,0.000141,0.001239
"2018-06-06 19:09:41.310 +0000",1528312181.309592,0.567085,-0.188188,0.412368,0.527692,0.187079,-0.828579,0.000000,0.000000,0.000000,-1,0.004491,0.002953,0.000693,-0.001538,0.000253,-0.002247
"2018-06-06 19:09:41.400 +0000",1528312181.400254,0.567285,-0.187879,0.412099,0.527888,0.186775,-0.828522,0.000000,0.000000,0.000000,-1,0.005559,0.001867,-0.001463,-0.000483,-0.001610,-0.002197
"2018-06-06 19:09:41.491 +0000",1528312181.490917,0.567167,-0.187378,0.411712,0.527841,0.186284,-0.828663,0.000000,0.000000,0.000000,-1,0.007660,-0.006914,-0.000418,0.000373,-0.003102,0.002903
"2018-06-06 19:09:41.582 +0000",1528312181.581580,0.567446,-0.187493,0.411854,0.528061,0.186397,-0.828497,0.000000,0.000000,0.000000,-1,-0.010229,0.009495,0.001823,0.003189,-0.003093,0.002539
"2018-06-06 19:09:41.672 +0000",1528312181.672244,0.567964,-0.188357,0.412165,0.528403,0.187245,-0.828088,0.000000,0.000000,0.000000,-1,-0.008065,0.004044,-0.005727,0.002115,-0.001912,0.002313
"2018-06-06 19:09:41.763 +0000",1528312181.762907,0.567976,-0.189232,0.412434,0.528324,0.188105,-0.827943,0.000000,0.000000,0.000000,-1,-0.018617,0.002890,0.000748,0.000515,-0.000406,-0.001372
"2018-06-06 19:09:41.854 +0000",1528312181.853569,0.568323,-0.190481,0.413122,0.528485,0.189331,-0.827561,0.000000,0.000000,0.000000,-1,-0.014394,0.006208,-0.002479,-0.003354,-0.001373,-0.001083
"2018-06-06 19:09:41.944 +0000",1528312181.944232,0.568838,-0.190952,0.413372,0.528863,0.189794,-0.827214,0.000000,0.000000,0.000000,-1,-0.003950,0.008402,0.005033,0.000480,0.003947,-0.003627
"2018-06-06 19:09:42.035 +0000",1528312182.034895,0.568748,-0.190494,0.413271,0.528835,0.189344,-0.827335,0.000000,0.000000,0.000000,-1,0.011864,-0.010194,-0.000436,0.001011,-0.000531,0.001239
"2018-06-06 19:09:42.126 +0000",1528312182.125558,0.567885,-0.189912,0.412764,0.528180,0.188773,-0.827883,0.000000,0.000000,0.000000,-1,0.003464,-0.004724,-0.001476,0.002749,-0.003195,0.002123
"2018-06-06 19:09:42.216 +0000",1528312182.216221,0.567502,-0.190073,0.412469,0.527847,0.188931,-0.828059,0.000000,0.000000,0.000000,-1,-0.004932,-0.002547,-0.002526,0.002350,0.000476,0.001994
"2018-06-06 19:09:42.307 +0000",1528312182.306883,0.567464,-0.190916,0.412863,0.527729,0.189758,-0.827945,0.000000,0.000000,0.000000,-1,-0.015447,0.000712,-0.001417,-0.002079,-0.002838,-0.001034
"2018-06-06 19:09:42.398 +0000",1528312182.397546,0.567875,-0.191792,0.413564,0.527980,0.190618,-0.827588,0.000000,0.000000,0.000000,-1,-0.010258,0.005086,0.006113,0.000584,0.000849,-0.000553
"2018-06-06 19:09:42.488 +0000",1528312182.488209,0.567855,-0.192364,0.414104,0.527905,0.191180,-0.827506,0.000000,0.000000,0.000000,-1,-0.003888,-0.004744,-0.001460,0.005298,0.002943,-0.002557
"2018-06-06 19:09:42.579 +0000",1528312182.578872,0.567548,-0.192390,0.414407,0.527648,0.191205,-0.827664,0.000000,0.000000,0.000000,-1,0.004495,-0.001434,0.000684,0.002305,-0.002972,0.004483
"2018-06-06 19:09:42.670 +0000",1528312182.669533,0.567076,-0.191950,0.414005,0.527302,0.190773,-0.827984,0.000000,0.000000,0.000000,-1,0.011875,-0.003596,-0.002566,-0.002293,0.001915,-0.001606
"2018-06-06 19:09:42.760 +0000",1528312182.760196,0.566893,-0.191180,0.413481,0.527229,0.190018,-0.828204,0.000000,0.000000,0.000000,-1,0.009755,-0.001415,-0.000403,0.001900,-0.001587,0.002292
"2018-06-06 19:09:42.851 +0000",1528312182.850859,0.566860,-0.190931,0.413278,0.527228,0.189773,-0.828261,0.000000,0.000000,0.000000,-1,0.003477,-0.000321,-0.003613,0.000436,-0.003234,0.001372
"2018-06-06 19:09:42.942 +0000",1528312182.941522,0.566816,-0.190947,0.412946,0.527190,0.189788,-0.828282,0.000000,0.000000,0.000000,-1,0.003475,0.001874,-0.003606,0.001085,0.000321,-0.002834
"2018-06-06 19:09:43.032 +0000",1528312183.032184,0.564588,-0.189097,0.410476,0.525530,0.187972,-0.829750,0.000000,0.000000,0.000000,-1,0.057216,-0.031930,-0.022114,-0.000368,0.002762,-0.000939
"2018-06-06 19:09:43.123 +0000",1528312183.122847,0.561219,-0.185885,0.406230,0.523050,0.184816,-0.832023,0.000000,0.000000,0.000000,-1,0.053006,-0.014373,-0.023128,-0.000040,-0.004106,0.004432
"2018-06-06 19:09:43.214 +0000",1528312183.213510,0.561241,-0.184406,0.403679,0.523213,0.183362,-0.832242,0.000000,0.000000,0.000000,-1,0.016135,0.020612,-0.013261,0.003886,-0.000348,0.002072
"2018-06-06 19:09:43.304 +0000",1528312183.304173,0.562065,-0.184085,0.401929,0.523930,0.183047,-0.831860,0.000000,0.000000,0.000000,-1,0.014063,0.008540,-0.015443,0.002589,-0.001849,0.001187
"2018-06-06 19:09:43.395 +0000",1528312183.394835,0.562176,-0.183820,0.400303,0.524049,0.182786,-0.831843,0.000000,0.000000,0.000000,-1,0.008781,0.005214,-0.011138,0.005492,-0.005204,0.002955
"2018-06-06 19:09:43.485 +0000",1528312183.485498,0.562047,-0.183444,0.399075,0.523978,0.182417,-0.831969,0.000000,0.000000,0.000000,-1,0.016110,-0.004664,-0.006881,0.000116,0.003085,-0.002870
"2018-06-06 19:09:43.576 +0000",1528312183.576161,0.560075,-0.182050,0.397086,0.522471,0.181046,-0.833215,0.000000,0.000000,0.000000,-1,0.037206,-0.028720,-0.015605,-0.006296,0.001403,-0.001868
"2018-06-06 19:09:43.667 +0000",1528312183.666823,0.557462,-0.178293,0.392414,0.520648,0.177350,-0.835148,0.000000,0.000000,0.000000,-1,0.082488,-0.012055,-0.032870,-0.010348,0.004153,-0.005382
"2018-06-06 19:09:43.757 +0000",1528312183.757486,0.555291,-0.173633,0.383723,0.519263,0.172761,-0.836970,0.000000,0.000000,0.000000,-1,0.098509,0.003511,-0.069434,-0.007377,0.002348,-0.000158
"2018-06-06 19:09:43.848 +0000",1528312183.848149,0.555284,-0.170674,0.373722,0.519524,0.169846,-0.837404,0.000000,0.000000,0.000000,-1,0.074310,0.036372,-0.068207,-0.004174,0.001220,0.000979
"2018-06-06 19:09:43.939 +0000",1528312183.938812,0.557160,-0.168576,0.365375,0.521282,0.167779,-0.836729,0.000000,0.000000,0.000000,-1,0.065853,0.024237,-0.059618,-0.000652,-0.004922,0.003065
"2018-06-06 19:09:44.029 +0000",1528312184.029474,0.556734,-0.165794,0.357523,0.521170,0.165036,-0.837344,0.000000,0.000000,0.000000,-1,0.064754,-0.002153,-0.050011,0.012689,-0.004986,0.006121
"2018-06-06 19:09:44.120 +0000",1528312184.120137,0.555905,-0.163678,0.352259,0.520659,0.162949,-0.838070,0.000000,0.000000,0.000000,-1,0.024621,0.011894,-0.022987,0.008852,-0.007065,0.005444
"2018-06-06 19:09:44.211 +0000",1528312184.210800,0.557266,-0.163512,0.351144,0.521813,0.162785,-0.837384,0.000000,0.000000,0.000000,-1,-0.003919,0.027093,-0.001365,0.008552,-0.006336,0.007275
"2018-06-06 19:09:44.301 +0000",1528312184.301462,0.559042,-0.164005,0.351287,0.523258,0.163271,-0.836387,0.000000,0.000000,0.000000,-1,-0.008128,0.027076,-0.000280,0.013425,-0.001360,0.001609
"2018-06-06 19:09:44.392 +0000",1528312184.392125,0.560327,-0.163588,0.350838,0.524368,0.162860,-0.835772,0.000000,0.000000,0.000000,-1,0.037216,-0.013338,-0.018787,-0.009322,-0.002826,-0.005170
"2018-06-06 19:09:44.483 +0000",1528312184.482788,0.558758,-0.161275,0.346796,0.523254,0.160577,-0.836911,0.000000,0.000000,0.000000,-1,0.054120,-0.012139,-0.031730,-0.002014,0.002235,-0.001285
"2018-06-06 19:09:44.573 +0000",1528312184.573450,0.557109,-0.158714,0.341466,0.522089,0.158048,-0.838119,0.000000,0.000000,0.000000,-1,0.053137,-0.013202,-0.040335,-0.000269,-0.004698,0.005828
"2018-06-06 19:09:44.664 +0000",1528312184.664113,0.556012,-0.157811,0.336989,0.521245,0.157157,-0.838812,0.000000,0.000000,0.000000,-1,0.012042,0.003086,-0.025135,0.006694,-0.006507,0.007208
"2018-06-06 19:09:44.755 +0000",1528312184.754776,0.557380,-0.158886,0.337132,0.522302,0.158218,-0.837955,0.000000,0.000000,0.000000,-1,-0.026048,0.016009,0.009411,0.007316,-0.005707,0.000934
"2018-06-06 19:09:44.845 +0000",1528312184.845438,0.559029,-0.160712,0.339907,0.523529,0.160021,-0.836846,0.000000,0.000000,0.000000,-1,-0.031311,0.001710,0.012608,-0.000412,-0.005679,0.004387
"2018-06-06 19:09:44.936 +0000",1528312184.936101,0.559628,-0.162381,0.341945,0.523887,0.161668,-0.836305,0.000000,0.000000,0.000000,-1,-0.022885,0.011631,0.008315,-0.001869,-0.000932,-0.003966
"2018-06-06 19:09:45.027 +0000",1528312185.026764,0.560725,-0.163530,0.343396,0.524706,0.162802,-0.835571,0.000000,0.000000,0.000000,-1,-0.012312,0.008404,-0.000324,-0.002367,-0.000968,0.000717
"2018-06-06 19:09:45.117 +0000",1528312185.117426,0.561555,-0.163966,0.343821,0.525361,0.163232,-0.835076,0.000000,0.000000,0.000000,-1,0.001338,0.005144,0.000711,0.002059,0.001014,-0.000526
"2018-06-06 19:09:45.208 +0000",1528312185.208089,0.561093,-0.163501,0.343549,0.525016,0.162773,-0.835382,0.000000,0.000000,0.000000,-1,0.010804,-0.008003,0.000651,0.000680,0.000526,0.003946
"2018-06-06 19:09:45.299 +0000",1528312185.298752,0.561191,-0.163360,0.343994,0.525110,0.162635,-0.835350,0.000000,0.000000,0.000000,-1,-0.003961,0.002906,0.007171,0.002555,-0.002753,0.002388
"2018-06-06 19:09:45.389 +0000",1528312185.389414,0.561092,-0.163764,0.344114,0.524992,0.163033,-0.835346,0.000000,0.000000,0.000000,-1,-0.000734,0.000761,-0.002524,0.002612,0.001731,-0.002605
"2018-06-06 19:09:45.480 +0000",1528312185.480077,0.560757,-0.163726,0.343917,0.524715,0.162996,-0.835527,0.000000,0.000000,0.000000,-1,0.004507,-0.004723,-0.000400,-0.001812,-0.000841,-0.001051
"2018-06-06 19:09:45.571 +0000",1528312185.570740,0.560761,-0.163553,0.343913,0.524734,0.162824,-0.835549,0.000000,0.000000,0.000000,-1,0.002394,-0.000339,0.000696,-0.003845,-0.002821,0.000725
"2018-06-06 19:09:45.661 +0000",1528312185.661402,0.560703,-0.163214,0.343489,0.524715,0.162490,-0.835626,0.000000,0.000000,0.000000,-1,0.007669,0.000787,-0.002540,0.004598,0.001694,-0.000586
"2018-06-06 19:09:45.752 +0000",1528312185.752065,0.560062,-0.162692,0.342728,0.524224,0.161976,-0.836034,0.000000,0.000000,0.000000,-1,0.006640,-0.004696,-0.004705,-0.001534,-0.000934,0.001287
"2018-06-06 19:09:45.843 +0000",1528312185.842727,0.560058,-0.162641,0.342676,0.524225,0.161925,-0.836043,0.000000,0.000000,0.000000,-1,-0.003889,-0.003641,-0.001451,0.001700,-0.003859,0.002349
"2018-06-06 19:09:45.933 +0000",1528312185.933390,0.560090,-0.162809,0.342759,0.524237,0.162091,-0.836004,0.000000,0.000000,0.000000,-1,0.001335,-0.000347,0.001774,0.003153,0.003223,-0.001383
"2018-06-06 19:09:46.024 +0000",1528312186.024053,0.559626,-0.162439,0.342550,0.523880,0.161725,-0.836298,0.000000,0.000000,0.000000,-1,0.003449,-0.005825,0.000677,-0.003067,-0.001966,0.005289
"2018-06-06 19:09:46.115 +0000",1528312186.114715,0.559588,-0.162480,0.342793,0.523845,0.161766,-0.836312,0.000000,0.000000,0.000000,-1,-0.003895,-0.005841,-0.000382,-0.000225,-0.002861,-0.000053
"2018-06-06 19:09:46.205 +0000",1528312186.205378,0.559137,-0.162565,0.342792,0.523461,0.161850,-0.836536,0.000000,0.000000,0.000000,-1,0.000316,-0.006923,-0.001470,-0.001137,-0.000549,-0.001522
"2018-06-06 19:09:46.296 +0000",1528312186.296040,0.559159,-0.162584,0.342923,0.523478,0.161869,-0.836522,0.000000,0.000000,0.000000,-1,-0.000746,-0.003637,-0.000382,-0.000422,-0.001514,0.003407
"2018-06-06 19:09:46.387 +0000",1528312186.386703,0.559005,-0.162491,0.342951,0.523357,0.161777,-0.836616,0.000000,0.000000,0.000000,-1,0.001329,-0.002547,0.002843,0.000508,0.000302,0.000144
"2018-06-06 19:09:46.477 +0000",1528312186.477365,0.559091,-0.162337,0.342987,0.523442,0.161625,-0.836592,0.000000,0.000000,0.000000,-1,0.002399,0.002958,-0.000370,-0.001942,-0.002567,-0.000704
"2018-06-06 19:09:46.568 +0000",1528312186.568028,0.559639,-0.162228,0.343087,0.523910,0.161518,-0.836320,0.000000,0.000000,0.000000,-1,-0.001829,0.012817,0.001819,0.001023,-0.000080,0.003892
"2018-06-06 19:09:46.659 +0000",1528312186.658691,0.560154,-0.162276,0.343415,0.524336,0.161564,-0.836043,0.000000,0.000000,0.000000,-1,-0.000759,0.000749,0.000705,0.001741,0.001003,-0.003297
"2018-06-06 19:09:46.749 +0000",1528312186.749353,0.560039,-0.162076,0.343450,0.524257,0.161367,-0.836131,0.000000,0.000000,0.000000,-1,-0.002876,0.000734,0.002861,-0.004039,-0.004293,0.001521
"2018-06-06 19:09:46.840 +0000",1528312186.840017,0.560308,-0.161915,0.343645,0.524496,0.161209,-0.836012,0.000000,0.000000,0.000000,-1,-0.000796,0.005122,0.005021,-0.000097,0.001038,0.002577
"2018-06-06 19:09:46.931 +0000",1528312186.930679,0.560339,-0.161524,0.343679,0.524555,0.160823,-0.836049,0.000000,0.000000,0.000000,-1,0.005545,-0.000331,0.000688,0.000027,-0.001170,0.000020
"2018-06-06 19:09:47.021 +0000",1528312187.021342,0.560531,-0.161185,0.343581,0.524745,0.160488,-0.835994,0.000000,0.000000,0.000000,-1,0.001367,0.000768,-0.002526,-0.002909,-0.003842,0.001735
"2018-06-06 19:09:47.112 +0000",1528312187.112004,0.560742,-0.161155,0.343436,0.524923,0.160458,-0.835888,0.000000,0.000000,0.000000,-1,-0.001829,0.004030,0.002869,0.001749,-0.001629,0.003078
"2018-06-06 19:09:47.203 +0000",1528312187.202667,0.560886,-0.161362,0.343583,0.525027,0.160663,-0.835784,0.000000,0.000000,0.000000,-1,-0.007064,-0.004762,0.001779,0.001417,-0.000537,-0.001680
"2018-06-06 19:09:47.293 +0000",1528312187.293329,0.561226,-0.161619,0.344069,0.525288,0.160917,-0.835570,0.000000,0.000000,0.000000,-1,-0.002860,0.001841,0.000713,-0.001469,0.000338,-0.001740
"2018-06-06 19:09:47.384 +0000",1528312187.383992,0.561286,-0.161493,0.343870,0.525349,0.160792,-0.835556,0.000000,0.000000,0.000000,-1,0.004533,-0.005805,-0.003628,0.001445,-0.002314,-0.000794
"2018-06-06 19:09:47.475 +0000",1528312187.474655,0.561022,-0.161245,0.343575,0.525150,0.160547,-0.835728,0.000000,0.000000,0.000000,-1,0.000275,0.000743,0.002854,0.001797,-0.001154,-0.000743
"2018-06-06 19:09:47.565 +0000",1528312187.565317,0.561064,-0.161112,0.343653,0.525197,0.160416,-0.835724,0.000000,0.000000,0.000000,-1,0.001323,0.004042,0.002627,0.006999,-0.001572,0.000214
"2018-06-06 19:09:47.656 +0000",1528312187.655980,0.561092,-0.160999,0.343621,0.525229,0.160304,-0.835725,0.000000,0.000000,0.000000,-1,0.004489,0.005158,0.000472,0.000787,-0.001399,0.003389
"2018-06-06 19:09:47.747 +0000",1528312187.746642,0.561043,-0.160726,0.343761,0.525212,0.160035,-0.835787,0.000000,0.000000,0.000000,-1,0.001336,-0.001442,0.001535,0.001567,-0.000428,-0.002195
"2018-06-06 19:09:47.837 +0000",1528312187.837305,0.560976,-0.160432,0.343864,0.525181,0.159745,-0.835863,0.000000,0.000000,0.000000,-1,0.005534,0.001863,0.001535,0.002926,-0.000398,0.002290
"2018-06-06 19:09:47.928 +0000",1528312187.927967,0.560827,-0.160222,0.343538,0.525075,0.159538,-0.835969,0.000000,0.000000,0.000000,-1,0.002402,-0.000332,-0.000615,-0.001179,-0.001777,0.002641
"2018-06-06 19:09:48.019 +0000",1528312188.018630,0.560691,-0.160189,0.343380,0.524964,0.159505,-0.836045,0.000000,0.000000,0.000000,-1,0.000302,-0.001436,-0.000614,0.001114,-0.000417,0.003785
"2018-06-06 19:09:48.109 +0000",1528312188.109292,0.560866,-0.160281,0.343424,0.525102,0.159595,-0.835941,0.000000,0.000000,0.000000,-1,0.000307,0.001862,-0.001680,0.002105,-0.000187,0.001575
"2018-06-06 19:09:48.200 +0000",1528312188.199955,0.560879,-0.160342,0.343306,0.525107,0.159656,-0.835926,0.000000,0.000000,0.000000,-1,0.000331,-0.005813,-0.003853,-0.000846,-0.001560,0.000935
"2018-06-06 19:09:48.291 +0000",1528312188.290617,0.560858,-0.160370,0.343297,0.525087,0.159684,-0.835933,0.000000,0.000000,0.000000,-1,-0.003880,-0.003634,-0.002762,0.000502,-0.001923,-0.000126
"2018-06-06 19:09:48.381 +0000",1528312188.381280,0.560596,-0.160364,0.343395,0.524869,0.159678,-0.836071,0.000000,0.000000,0.000000,-1,-0.002837,-0.004734,-0.001692,0.001544,0.000173,-0.001239
"2018-06-06 19:09:48.472 +0000",1528312188.471942,0.559965,-0.160216,0.343247,0.524354,0.159531,-0.836422,0.000000,0.000000,0.000000,-1,0.000303,-0.002534,-0.000617,-0.001435,-0.003449,0.001095
"2018-06-06 19:09:48.563 +0000",1528312188.562605,0.559717,-0.159920,0.343030,0.524172,0.159239,-0.836592,0.000000,0.000000,0.000000,-1,0.003461,-0.000324,-0.001578,0.000715,-0.000700,0.003081
"2018-06-06 19:09:48.653 +0000",1528312188.653267,0.559419,-0.159678,0.342920,0.523942,0.159001,-0.836781,0.000000,0.000000,0.000000,-1,-0.001787,-0.004729,-0.001579,-0.000490,-0.002827,-0.000728
"2018-06-06 19:09:48.744 +0000",1528312188.743930,0.559255,-0.159814,0.343043,0.523794,0.159135,-0.836849,0.000000,0.000000,0.000000,-1,-0.003891,-0.001442,-0.001564,0.002223,-0.000856,0.002132
"2018-06-06 19:09:48.835 +0000",1528312188.834592,0.559174,-0.160036,0.343123,0.523707,0.159354,-0.836861,0.000000,0.000000,0.000000,-1,-0.003887,-0.005833,-0.001577,-0.001796,-0.001090,-0.001167
"2018-06-06 19:09:48.925 +0000",1528312188.925254,0.559135,-0.160020,0.343367,0.523676,0.159338,-0.836884,0.000000,0.000000,0.000000,-1,-0.002891,-0.000368,0.004890,-0.000406,0.001291,-0.001144
"2018-06-06 19:09:49.016 +0000",1528312189.015917,0.559162,-0.159885,0.343686,0.523710,0.159204,-0.836888,0.000000,0.000000,0.000000,-1,0.002369,-0.000349,0.003803,-0.000090,-0.002176,-0.000530
"2018-06-06 19:09:49.107 +0000",1528312189.106579,0.559035,-0.159575,0.343589,0.523630,0.158899,-0.836996,0.000000,0.000000,0.000000,-1,0.004533,-0.005801,-0.003748,0.002646,0.000525,-0.000773
"2018-06-06 19:09:49.197 +0000",1528312189.197242,0.559271,-0.159374,0.343505,0.523844,0.158700,-0.836900,0.000000,0.000000,0.000000,-1,-0.000772,0.006237,0.001678,0.002843,-0.000833,-0.003753
"2018-06-06 19:09:49.288 +0000",1528312189.287904,0.559471,-0.159297,0.343577,0.524018,0.158624,-0.836805,0.000000,0.000000,0.000000,-1,0.002421,-0.002518,-0.002658,0.001480,-0.004251,0.001585
"2018-06-06 19:09:49.379 +0000",1528312189.378567,0.559380,-0.159262,0.343472,0.523945,0.158589,-0.836857,0.000000,0.000000,0.000000,-1,0.002413,-0.003620,-0.001585,-0.002827,-0.001119,0.000371
"2018-06-06 19:09:49.469 +0000",1528312189.469229,0.559463,-0.159191,0.343558,0.524020,0.158519,-0.836824,0.000000,0.000000,0.000000,-1,-0.000730,-0.002526,-0.002650,-0.000583,-0.001079,-0.001799
"2018-06-06 19:09:49.560 +0000",1528312189.559891,0.559655,-0.159267,0.343498,0.524175,0.158594,-0.836713,0.000000,0.000000,0.000000,-1,0.000334,-0.000320,-0.004739,0.001994,-0.001596,-0.000690
"2018-06-06 19:09:49.651 +0000",1528312189.650553,0.559914,-0.159520,0.343540,0.524370,0.158844,-0.836543,0.000000,0.000000,0.000000,-1,-0.006007,0.006231,-0.000403,-0.000139,-0.000305,0.000148
"2018-06-06 19:09:49.741 +0000",1528312189.741215,0.560102,-0.159691,0.343741,0.524512,0.159014,-0.836421,0.000000,0.000000,0.000000,-1,-0.003908,-0.000354,0.000648,-0.003715,-0.003237,0.002254
"2018-06-06 19:09:49.832 +0000",1528312189.831878,0.560106,-0.159764,0.343781,0.524510,0.159085,-0.836409,0.000000,0.000000,0.000000,-1,-0.001792,0.000759,-0.001504,0.001002,-0.003033,0.003203
"2018-06-06 19:09:49.923 +0000",1528312189.922540,0.560222,-0.160132,0.344021,0.524576,0.159449,-0.836299,0.000000,0.000000,0.000000,-1,-0.008103,0.000736,-0.000414,-0.001215,-0.003077,0.001033
"2018-06-06 19:09:50.013 +0000",1528312190.013202,0.560005,-0.160424,0.344000,0.524369,0.159736,-0.836374,0.000000,0.000000,0.000000,-1,-0.002847,-0.003640,-0.000439,0.001143,0.001595,0.002603
"2018-06-06 19:09:50.104 +0000",1528312190.103865,0.559792,-0.160444,0.344149,0.524190,0.159756,-0.836482,0.000000,0.000000,0.000000,-1,0.001337,-0.002540,0.001706,0.005596,-0.001675,0.001781
"2018-06-06 19:09:50.195 +0000",1528312190.194527,0.559902,-0.160393,0.344174,0.524286,0.159706,-0.836431,0.000000,0.000000,0.000000,-1,0.003427,0.008444,0.001733,0.004172,0.004158,-0.001276
"2018-06-06 19:09:50.285 +0000",1528312190.285190,0.559823,-0.159901,0.343777,0.524262,0.159221,-0.836539,0.000000,0.000000,0.000000,-1,0.007653,0.000780,-0.000450,0.001144,-0.001078,0.002570
"2018-06-06 19:09:50.376 +0000",1528312190.375852,0.559611,-0.159505,0.343437,0.524118,0.158829,-0.836704,0.000000,0.000000,0.000000,-1,0.002444,-0.001407,-0.005823,0.000647,-0.004181,0.001224
"2018-06-06 19:09:50.467 +0000",1528312190.466514,0.559633,-0.159736,0.343425,0.524117,0.159058,-0.836661,0.000000,0.000000,0.000000,-1,-0.004941,-0.001446,-0.001504,-0.001565,-0.002518,-0.000192
"2018-06-06 19:09:50.557 +0000",1528312190.557177,0.560055,-0.160173,0.343729,0.524433,0.159489,-0.836381,0.000000,0.000000,0.000000,-1,-0.003900,-0.000350,-0.000427,-0.003574,-0.002049,0.002519
"2018-06-06 19:09:50.648 +0000",1528312190.647839,0.559881,-0.160211,0.343468,0.524284,0.159526,-0.836467,0.000000,0.000000,0.000000,-1,0.007662,-0.000311,-0.001528,0.002358,-0.000591,0.001994
"2018-06-06 19:09:50.739 +0000",1528312190.738501,0.559652,-0.159922,0.343069,0.524117,0.159241,-0.836626,0.000000,0.000000,0.000000,-1,0.007681,-0.002498,-0.003685,0.001777,-0.002000,0.001818
"2018-06-06 19:09:50.829 +0000",1528312190.829164,0.559348,-0.159807,0.342759,0.523872,0.159128,-0.836801,0.000000,0.000000,0.000000,-1,-0.003910,0.001843,0.000657,-0.000786,-0.000330,0.000421
"2018-06-06 19:09:50.920 +0000",1528312190.919826,0.559151,-0.159958,0.342580,0.523695,0.159276,-0.836884,0.000000,0.000000,0.000000,-1,-0.000744,0.002959,-0.001499,0.008104,0.000086,0.001358
"2018-06-06 19:09:51.010 +0000",1528312191.010488,0.558692,-0.160066,0.342254,0.523301,0.159384,-0.837110,0.000000,0.000000,0.000000,-1,0.000283,0.001850,0.001723,-0.001115,-0.000433,0.000760
"2018-06-06 19:09:51.101 +0000",1528312191.101151,0.559011,-0.159932,0.342394,0.523580,0.159251,-0.836961,0.000000,0.000000,0.000000,-1,-0.000785,0.002936,0.003880,0.004680,0.000692,0.002549
"2018-06-06 19:09:51.192 +0000",1528312191.191813,0.558468,-0.159845,0.342263,0.523132,0.159166,-0.837257,0.000000,0.000000,0.000000,-1,0.002400,-0.006921,0.000617,0.001831,-0.003495,0.002113
"2018-06-06 19:09:51.282 +0000",1528312191.282475,0.558688,-0.160052,0.342429,0.523299,0.159370,-0.837114,0.000000,0.000000,0.000000,-1,-0.001806,0.006244,-0.000411,0.000764,-0.002479,-0.000441
"2018-06-06 19:09:51.373 +0000",1528312191.373138,0.558856,-0.160120,0.342657,0.523434,0.159437,-0.837017,0.000000,0.000000,0.000000,-1,0.002389,-0.003633,0.001702,0.004047,0.000903,0.000606
"2018-06-06 19:09:51.464 +0000",1528312191.463800,0.558453,-0.159675,0.342615,0.523134,0.158997,-0.837288,0.000000,0.000000,0.000000,-1,0.003417,0.001850,0.003867,-0.001024,-0.001267,-0.003868
"2018-06-06 19:09:51.554 +0000",1528312191.554462,0.559109,-0.159478,0.342744,0.523700,0.158803,-0.836971,0.000000,0.000000,0.000000,-1,-0.004946,0.004045,-0.001486,0.000592,-0.004643,0.000606
"2018-06-06 19:09:51.645 +0000",1528312191.645125,0.557984,-0.160639,0.342895,0.522660,0.159949,-0.837402,0.000000,0.000000,0.000000,-1,-0.023843,-0.005886,-0.001469,0.002898,-0.003028,-0.000717
"2018-06-06 19:09:51.736 +0000",1528312191.735787,0.561688,-0.164492,0.346403,0.525427,0.163751,-0.834933,0.000000,0.000000,0.000000,-1,-0.069129,0.033462,0.009505,0.008784,-0.001520,-0.000074
"2018-06-06 19:09:51.826 +0000",1528312191.826449,0.563811,-0.168002,0.349103,0.526887,0.167213,-0.833325,0.000000,0.000000,0.000000,-1,-0.035480,0.011610,0.007213,-0.011750,0.004006,-0.001453
"2018-06-06 19:09:51.917 +0000",1528312191.917111,0.563388,-0.168823,0.350084,0.526461,0.168022,-0.833431,0.000000,0.000000,0.000000,-1,-0.009186,0.000719,0.003894,-0.007876,0.004311,-0.001667
"2018-06-06 19:09:52.008 +0000",1528312192.007774,0.567071,-0.170082,0.352705,0.529413,0.169263,-0.831307,0.000000,0.000000,0.000000,-1,-0.035625,0.058759,0.020259,-0.000726,-0.004758,-0.003593
"2018-06-06 19:09:52.098 +0000",1528312192.098436,0.569498,-0.170412,0.352900,0.531399,0.169589,-0.829973,0.000000,0.000000,0.000000,-1,0.022521,-0.014462,-0.019887,0.007878,-0.006121,0.002641
"2018-06-06 19:09:52.189 +0000",1528312192.189098,0.565447,-0.168472,0.348584,0.528207,0.167676,-0.832395,0.000000,0.000000,0.000000,-1,0.030822,-0.019986,-0.005938,-0.050912,0.012133,0.000288
"2018-06-06 19:09:52.280 +0000",1528312192.279761,0.564414,-0.166705,0.348342,0.527505,0.165934,-0.833189,0.000000,0.000000,0.000000,-1,0.007445,0.028129,0.023298,0.004111,0.004278,0.009428
"2018-06-06 19:09:52.370 +0000",1528312192.370423,0.565533,-0.165173,0.349512,0.528573,0.164423,-0.832812,0.000000,0.000000,0.000000,-1,0.024407,-0.031049,0.010179,0.010322,-0.013162,-0.009610
"2018-06-06 19:09:52.461 +0000",1528312192.461085,0.557213,-0.163886,0.345571,0.521737,0.163153,-0.837360,0.000000,0.000000,0.000000,-1,0.032218,-0.095579,-0.041658,0.018440,0.007303,0.005344
"2018-06-06 19:09:52.552 +0000",1528312192.551747,0.554472,-0.164566,0.344837,0.519381,0.163824,-0.838692,0.000000,0.000000,0.000000,-1,-0.021839,0.017132,0.008274,-0.005801,0.003641,-0.004753
"2018-06-06 19:09:52.642 +0000",1528312192.642411,0.552104,-0.163562,0.343620,0.517480,0.162834,-0.840059,0.000000,0.000000,0.000000,-1,0.051987,-0.063772,-0.021171,0.008017,-0.007530,-0.003874
"2018-06-06 19:09:52.733 +0000",1528312192.733073,0.546967,-0.161369,0.340080,0.513342,0.160670,-0.843009,0.000000,0.000000,0.000000,-1,0.019345,-0.039744,-0.013497,0.002634,-0.004648,0.011589
"2018-06-06 19:09:52.824 +0000",1528312192.823735,0.544138,-0.162874,0.340293,0.510830,0.162155,-0.844251,0.000000,0.000000,0.000000,-1,-0.052302,-0.006017,0.011505,0.002064,-0.009506,0.002164
"2018-06-06 19:09:52.914 +0000",1528312192.914397,0.546671,-0.166843,0.344094,0.512628,0.166070,-0.842397,0.000000,0.000000,0.000000,-1,-0.041751,0.013808,0.002933,-0.004602,0.005348,-0.003626
"2018-06-06 19:09:53.005 +0000",1528312193.005059,0.546897,-0.168201,0.344647,0.512700,0.167409,-0.842088,0.000000,0.000000,0.000000,-1,-0.009132,0.005144,-0.003621,-0.008733,-0.000219,-0.005064
"2018-06-06 19:09:53.096 +0000",1528312193.095722,0.547310,-0.168061,0.344850,0.513060,0.167271,-0.841897,0.000000,0.000000,0.000000,-1,0.008737,-0.016766,-0.002650,0.010866,0.001033,0.004616
"2018-06-06 19:09:53.186 +0000",1528312193.186384,0.545308,-0.167455,0.343802,0.511426,0.166673,-0.843008,0.000000,0.000000,0.000000,-1,0.008788,-0.018934,-0.009110,-0.004682,-0.007402,0.003104
"2018-06-06 19:09:53.277 +0000",1528312193.277046,0.547030,-0.168351,0.344156,0.512800,0.167557,-0.841998,0.000000,0.000000,0.000000,-1,-0.013365,0.020492,-0.001415,-0.009778,0.001312,0.001605
"2018-06-06 19:09:53.368 +0000",1528312193.367708,0.548206,-0.168296,0.344102,0.513794,0.167503,-0.841403,0.000000,0.000000,0.000000,-1,0.006572,0.015045,0.001751,-0.005585,0.002022,-0.002332
"2018-06-06 19:09:53.458 +0000",1528312193.458370,0.549051,-0.167512,0.343753,0.514573,0.166730,-0.841080,0.000000,0.000000,0.000000,-1,0.009699,0.006254,0.006020,0.011169,0.005740,0.000947
"2018-06-06 19:09:53.549 +0000",1528312193.549033,0.545355,-0.166160,0.342271,0.511577,0.165397,-0.843168,0.000000,0.000000,0.000000,-1,0.023575,-0.051799,-0.015693,0.012761,-0.008399,0.011900
"2018-06-06 19:09:53.640 +0000",1528312193.639694,0.543328,-0.166560,0.342105,0.509833,0.165791,-0.844147,0.000000,0.000000,0.000000,-1,-0.034465,0.022580,0.010473,-0.015921,-0.007619,-0.002991
"2018-06-06 19:09:53.730 +0000",1528312193.730356,0.547812,-0.168564,0.344931,0.513439,0.167767,-0.841567,0.000000,0.000000,0.000000,-1,-0.017688,0.043479,0.011571,-0.004512,0.007603,-0.006776
"2018-06-06 19:09:53.821 +0000",1528312193.821018,0.549746,-0.167893,0.345162,0.515125,0.167105,-0.840668,0.000000,0.000000,0.000000,-1,0.020272,0.010716,-0.003671,0.000302,-0.000036,-0.002716
"2018-06-06 19:09:53.912 +0000",1528312193.911680,0.549757,-0.166713,0.343977,0.515236,0.165942,-0.840830,0.000000,0.000000,0.000000,-1,0.011864,0.007394,-0.002585,0.010277,-0.008761,0.009821
"2018-06-06 19:09:54.002 +0000",1528312194.002343,0.550295,-0.167313,0.343982,0.515636,0.166533,-0.840468,0.000000,0.000000,0.000000,-1,-0.020720,0.014979,-0.000337,0.003483,-0.003310,0.004256
"2018-06-06 19:09:54.093 +0000",1528312194.093005,0.551760,-0.168914,0.345853,0.516727,0.168112,-0.839483,0.000000,0.000000,0.000000,-1,-0.020760,0.005072,0.006088,0.000363,-0.003577,0.000646
"2018-06-06 19:09:54.184 +0000",1528312194.183667,0.551984,-0.169616,0.346613,0.516853,0.168804,-0.839266,0.000000,0.000000,0.000000,-1,-0.002858,-0.000345,0.000653,-0.004524,-0.001812,-0.000165
"2018-06-06 19:09:54.274 +0000",1528312194.274329,0.551633,-0.169529,0.346724,0.516566,0.168719,-0.839460,0.000000,0.000000,0.000000,-1,0.002396,-0.002525,0.000634,-0.001597,0.000150,-0.002245
"2018-06-06 19:09:54.365 +0000",1528312194.364991,0.551946,-0.169404,0.346842,0.516840,0.168595,-0.839317,0.000000,0.000000,0.000000,-1,0.000306,0.004064,-0.001493,-0.001337,-0.004471,0.000389
"2018-06-06 19:09:54.456 +0000",1528312194.455653,0.552420,-0.169326,0.346802,0.517244,0.168518,-0.839083,0.000000,0.000000,0.000000,-1,-0.003902,0.001853,-0.000414,-0.000521,-0.002381,0.002657
"2018-06-06 19:09:54.546 +0000",1528312194.546315,0.552596,-0.169305,0.346743,0.517394,0.168497,-0.838995,0.000000,0.000000,0.000000,-1,-0.001811,0.002952,0.000660,0.003236,-0.002268,0.002416
"2018-06-06 19:09:54.637 +0000",1528312194.636977,0.552503,-0.169414,0.346777,0.517306,0.168605,-0.839027,0.000000,0.000000,0.000000,-1,0.000294,-0.001434,0.000642,0.000714,-0.000010,0.000297
"2018-06-06 19:09:54.728 +0000",1528312194.727639,0.552498,-0.169629,0.346847,0.517283,0.168817,-0.838999,0.000000,0.000000,0.000000,-1,-0.001766,-0.000320,-0.004729,0.002142,-0.000574,0.000132
"2018-06-06 19:09:54.818 +0000",1528312194.818301,0.552802,-0.169690,0.346872,0.517533,0.168877,-0.838833,0.000000,0.000000,0.000000,-1,-0.000789,0.007331,0.003897,0.001281,0.000114,-0.000446
"2018-06-06 19:09:54.909 +0000",1528312194.908963,0.552837,-0.169680,0.346925,0.517563,0.168866,-0.838816,0.000000,0.000000,0.000000,-1,-0.001801,0.001858,-0.000420,0.002762,-0.002469,-0.000570
"2018-06-06 19:09:55.000 +0000",1528312194.999625,0.552994,-0.169540,0.346926,0.517707,0.168729,-0.838755,0.000000,0.000000,0.000000,-1,0.001323,0.004049,0.002807,0.001855,-0.000303,0.000239
"2018-06-06 19:09:55.090 +0000",1528312195.090287,0.553051,-0.169420,0.347026,0.517765,0.168611,-0.838743,0.000000,0.000000,0.000000,-1,0.002394,-0.000330,0.000640,0.001232,-0.001756,0.000593
"2018-06-06 19:09:55.181 +0000",1528312195.180949,0.553119,-0.169240,0.346891,0.517838,0.168434,-0.838734,0.000000,0.000000,0.000000,-1,0.000316,0.001873,-0.002576,-0.000382,-0.002128,0.000416
"2018-06-06 19:09:55.272 +0000",1528312195.271611,0.553276,-0.169348,0.346864,0.517960,0.168540,-0.838637,0.000000,0.000000,0.000000,-1,-0.002848,0.006250,-0.001480,0.003189,-0.001411,0.003035
"2018-06-06 19:09:55.362 +0000",1528312195.362274,0.553531,-0.169622,0.347199,0.518150,0.168809,-0.838465,0.000000,0.000000,0.000000,-1,-0.003891,-0.001437,-0.001500,0.001396,-0.001604,0.001093
"2018-06-06 19:09:55.453 +0000",1528312195.452936,0.553839,-0.169797,0.347638,0.518393,0.168982,-0.838280,0.000000,0.000000,0.000000,-1,-0.003900,-0.000344,-0.000421,-0.001074,-0.001227,-0.000449
"2018-06-06 19:09:55.544 +0000",1528312195.543598,0.553828,-0.169679,0.347638,0.518393,0.168866,-0.838303,0.000000,0.000000,0.000000,-1,-0.000741,-0.000330,-0.001504,-0.000678,-0.002438,0.001466
"2018-06-06 19:09:55.634 +0000",1528312195.634262,0.554051,-0.169654,0.347627,0.518583,0.168841,-0.838191,0.000000,0.000000,0.000000,-1,-0.003931,0.006234,0.002829,0.002749,-0.002291,0.000575
"2018-06-06 19:09:55.725 +0000",1528312195.724924,0.554105,-0.169817,0.347708,0.518613,0.169002,-0.838140,0.000000,0.000000,0.000000,-1,-0.000739,-0.001423,-0.001503,-0.000699,-0.002284,0.000982
"2018-06-06 19:09:55.816 +0000",1528312195.815586,0.554416,-0.169928,0.347757,0.518865,0.169112,-0.837962,0.000000,0.000000,0.000000,-1,-0.003906,-0.002539,0.000653,-0.000661,-0.000716,0.000896
"2018-06-06 19:09:55.906 +0000",1528312195.906248,0.554239,-0.169837,0.347706,0.518724,0.169021,-0.838067,0.000000,0.000000,0.000000,-1,-0.001772,-0.002515,-0.003655,0.001311,-0.002655,-0.001166
"2018-06-06 19:09:55.997 +0000",1528312195.996910,0.554143,-0.169935,0.347527,0.518635,0.169119,-0.838103,0.000000,0.000000,0.000000,-1,-0.000721,-0.003610,-0.003660,0.000545,-0.003652,-0.000032
"2018-06-06 19:09:56.088 +0000",1528312196.087572,0.554156,-0.170104,0.347397,0.518631,0.169285,-0.838072,0.000000,0.000000,0.000000,-1,-0.002832,-0.001425,-0.002574,-0.000366,-0.001713,0.001753
"2018-06-06 19:09:56.178 +0000",1528312196.178234,0.554241,-0.170202,0.347239,0.518693,0.169382,-0.838014,0.000000,0.000000,0.000000,-1,0.000316,0.001877,-0.002571,-0.001298,-0.003244,0.001878
"2018-06-06 19:09:56.269 +0000",1528312196.268896,0.554855,-0.170441,0.347241,0.519187,0.169617,-0.837660,0.000000,0.000000,0.000000,-1,-0.004958,0.008440,-0.000389,0.001687,-0.002595,0.004134
"2018-06-06 19:09:56.360 +0000",1528312196.359558,0.554993,-0.170379,0.347120,0.519307,0.169556,-0.837598,0.000000,0.000000,0.000000,-1,0.001346,-0.002524,0.000641,0.001216,-0.001038,-0.001223
"2018-06-06 19:09:56.450 +0000",1528312196.450221,0.554666,-0.170173,0.347288,0.519052,0.169353,-0.837797,0.000000,0.000000,0.000000,-1,-0.001854,-0.003658,0.007099,0.001074,-0.001659,-0.000399
"2018-06-06 19:09:56.541 +0000",1528312196.540883,0.554341,-0.170008,0.347669,0.518795,0.169191,-0.837990,0.000000,0.000000,0.000000,-1,-0.000741,-0.008014,-0.000446,0.003254,-0.006150,0.003181
"2018-06-06 19:09:56.632 +0000",1528312196.631545,0.554168,-0.170031,0.347752,0.518648,0.169213,-0.838076,0.000000,0.000000,0.000000,-1,-0.002871,0.005143,0.001748,-0.000535,-0.001687,-0.001020
"2018-06-06 19:09:56.722 +0000",1528312196.722207,0.554454,-0.170027,0.348061,0.518887,0.169208,-0.837929,0.000000,0.000000,0.000000,-1,-0.000783,0.000749,0.003881,0.000446,-0.000767,-0.000130
"2018-06-06 19:09:56.813 +0000",1528312196.812869,0.554891,-0.170075,0.348398,0.519249,0.169256,-0.837695,0.000000,0.000000,0.000000,-1,-0.001835,0.002941,0.003890,-0.000740,-0.001242,-0.000562
"2018-06-06 19:09:56.904 +0000",1528312196.903531,0.555129,-0.170108,0.348482,0.519446,0.169289,-0.837566,0.000000,0.000000,0.000000,-1,0.004493,0.001875,0.000645,0.003229,-0.000618,0.000118
"2018-06-06 19:09:56.994 +0000",1528312196.994193,0.555211,-0.169923,0.348320,0.519531,0.169106,-0.837550,0.000000,0.000000,0.000000,-1,0.003440,0.004067,0.000654,0.001587,-0.001244,0.000606
"2018-06-06 19:09:57.085 +0000",1528312197.084855,0.555289,-0.169801,0.348215,0.519607,0.168986,-0.837527,0.000000,0.000000,0.000000,-1,0.002424,0.002985,-0.003649,0.001419,-0.002284,-0.000440
"2018-06-06 19:09:57.176 +0000",1528312197.175517,0.555448,-0.169774,0.348100,0.519743,0.168959,-0.837448,0.000000,0.000000,0.000000,-1,-0.001800,0.000764,-0.000419,0.001040,-0.002471,-0.000488
"2018-06-06 19:09:57.266 +0000",1528312197.266179,0.555576,-0.169860,0.348247,0.519842,0.169044,-0.837370,0.000000,0.000000,0.000000,-1,-0.001808,0.000759,0.000657,0.003336,-0.001258,0.002012
"2018-06-06 19:09:57.357 +0000",1528312197.356841,0.555722,-0.169962,0.348323,0.519955,0.169145,-0.837279,0.000000,0.000000,0.000000,-1,-0.001803,0.004057,-0.000409,0.003116,-0.000429,-0.001741
"2018-06-06 19:09:57.448 +0000",1528312197.447503,0.555551,-0.169924,0.348231,0.519816,0.169107,-0.837373,0.000000,0.000000,0.000000,-1,-0.000750,0.000767,-0.000421,0.002782,-0.002527,0.001741
"2018-06-06 19:09:57.538 +0000",1528312197.538165,0.555412,-0.169843,0.347780,0.519707,0.169027,-0.837457,0.000000,0.000000,0.000000,-1,0.007711,-0.007965,-0.006920,-0.003715,-0.002828,0.002054
"2018-06-06 19:09:57.629 +0000",1528312197.628826,0.553739,-0.169301,0.346311,0.518353,0.168493,-0.838403,0.000000,0.000000,0.000000,-1,0.020301,-0.001347,-0.005829,0.003269,0.003412,-0.004263
"2018-06-06 19:09:57.719 +0000",1528312197.719488,0.553741,-0.167797,0.345344,0.518487,0.167010,-0.838617,0.000000,0.000000,0.000000,-1,0.017143,-0.020031,-0.002649,-0.006585,-0.003131,-0.004874
"2018-06-06 19:09:57.810 +0000",1528312197.810150,0.549067,-0.167130,0.343737,0.514620,0.166353,-0.841126,0.000000,0.000000,0.000000,-1,0.017288,-0.101229,-0.011491,0.003767,-0.005495,0.002594
"2018-06-06 19:09:57.901 +0000",1528312197.900812,0.542186,-0.166995,0.342669,0.508831,0.166220,-0.844666,0.000000,0.000000,0.000000,-1,-0.000655,-0.054098,-0.005934,0.009311,-0.006323,0.004441
"2018-06-06 19:09:57.991 +0000",1528312197.991474,0.537821,-0.166855,0.341265,0.505152,0.166081,-0.846899,0.000000,0.000000,0.000000,-1,0.015120,-0.040863,-0.010235,-0.006998,0.002894,-0.002405
"2018-06-06 19:09:58.082 +0000",1528312198.082136,0.535720,-0.166385,0.340421,0.503411,0.165619,-0.848026,0.000000,0.000000,0.000000,-1,0.007675,-0.004689,-0.002583,-0.002923,-0.005188,-0.000851
"2018-06-06 19:09:58.173 +0000",1528312198.172798,0.532760,-0.164412,0.337888,0.501063,0.163673,-0.849792,0.000000,0.000000,0.000000,-1,0.069934,-0.080143,-0.030912,0.010061,-0.003303,0.003753
"2018-06-06 19:09:58.263 +0000",1528312198.263460,0.525310,-0.161498,0.332696,0.494955,0.160797,-0.853911,0.000000,0.000000,0.000000,-1,0.026795,-0.037469,-0.026386,0.002024,-0.000076,-0.000719
"2018-06-06 19:09:58.354 +0000",1528312198.354122,0.523761,-0.161220,0.331218,0.493654,0.160523,-0.854715,0.000000,0.000000,0.000000,-1,0.001411,0.007396,-0.008987,-0.002520,-0.002152,-0.001273
"2018-06-06 19:09:58.445 +0000",1528312198.444784,0.525681,-0.160688,0.330456,0.495337,0.159997,-0.853839,0.000000,0.000000,0.000000,-1,0.025491,0.028289,-0.001452,-0.012442,0.005408,-0.003338
"2018-06-06 19:09:58.535 +0000",1528312198.535446,0.529356,-0.158590,0.329809,0.498641,0.157926,-0.852301,0.000000,0.000000,0.000000,-1,0.010638,0.061117,0.013736,0.003099,-0.008130,0.002340
"2018-06-06 19:09:58.626 +0000",1528312198.626109,0.535008,-0.158791,0.332564,0.503434,0.158124,-0.849442,0.000000,0.000000,0.000000,-1,-0.029342,0.036810,0.025593,0.018493,-0.008542,0.014954
"2018-06-06 19:09:58.717 +0000",1528312198.716771,0.536681,-0.159695,0.334648,0.504781,0.159017,-0.848475,0.000000,0.000000,0.000000,-1,-0.021798,0.000690,0.005034,0.000026,-0.004995,0.004573
"2018-06-06 19:09:58.807 +0000",1528312198.807433,0.536948,-0.160364,0.335467,0.504952,0.159677,-0.848249,0.000000,0.000000,0.000000,-1,-0.005023,0.016097,0.007191,-0.003182,0.002569,-0.004870
"2018-06-06 19:09:58.898 +0000",1528312198.898095,0.538975,-0.160033,0.335811,0.506698,0.159351,-0.847269,0.000000,0.000000,0.000000,-1,0.009787,0.000819,-0.004719,-0.008743,-0.000828,-0.006522
"2018-06-06 19:09:58.989 +0000",1528312198.988757,0.539127,-0.159009,0.334875,0.506911,0.158340,-0.847331,0.000000,0.000000,0.000000,-1,0.005518,0.010655,0.002849,0.004045,-0.004668,0.005382
"2018-06-06 19:09:59.079 +0000",1528312199.079419,0.539038,-0.159125,0.334890,0.506826,0.158454,-0.847361,0.000000,0.000000,0.000000,-1,-0.001819,0.004053,0.001771,0.002345,-0.000526,-0.002523
"2018-06-06 19:09:59.170 +0000",1528312199.170081,0.539717,-0.159322,0.335427,0.507385,0.158649,-0.846990,0.000000,0.000000,0.000000,-1,-0.000758,0.000767,0.000683,0.002106,-0.002124,-0.001109
"2018-06-06 19:09:59.261 +0000",1528312199.260743,0.539816,-0.158969,0.335221,0.507497,0.158300,-0.846987,0.000000,0.000000,0.000000,-1,0.002375,0.002962,0.002834,0.000849,-0.001592,-0.000226
"2018-06-06 19:09:59.351 +0000",1528312199.351404,0.540590,-0.158814,0.335641,0.508165,0.158147,-0.846615,0.000000,0.000000,0.000000,-1,-0.003957,0.008420,0.006091,0.001204,-0.001424,0.001950
"2018-06-06 19:09:59.442 +0000",1528312199.442066,0.541713,-0.158900,0.336467,0.509109,0.158232,-0.846032,0.000000,0.000000,0.000000,-1,-0.005019,0.011706,0.007179,0.000656,-0.001540,-0.002112
"2018-06-06 19:09:59.533 +0000",1528312199.532728,0.542617,-0.158737,0.336949,0.509887,0.158072,-0.845594,0.000000,0.000000,0.000000,-1,0.000281,0.004059,0.001766,0.001390,-0.002051,0.000410
"2018-06-06 19:09:59.623 +0000",1528312199.623389,0.542779,-0.158245,0.336822,0.510064,0.157585,-0.845578,0.000000,0.000000,0.000000,-1,0.005538,-0.001416,0.001738,0.000511,-0.002800,0.001965
"2018-06-06 19:09:59.714 +0000",1528312199.714051,0.543412,-0.157987,0.336980,0.510620,0.157330,-0.845289,0.000000,0.000000,0.000000,-1,-0.001849,0.008428,0.005008,-0.002335,-0.002866,0.000914
"2018-06-06 19:09:59.805 +0000",1528312199.804713,0.544940,-0.158311,0.337887,0.511885,0.157651,-0.844464,0.000000,0.000000,0.000000,-1,-0.012414,0.029233,0.010471,0.007433,0.001575,0.002332
"2018-06-06 19:09:59.895 +0000",1528312199.895375,0.546056,-0.158304,0.338260,0.512828,0.157644,-0.843893,0.000000,0.000000,0.000000,-1,0.009764,-0.001393,-0.001501,0.002569,0.001246,-0.001474
"2018-06-06 19:09:59.986 +0000",1528312199.986037,0.545693,-0.158018,0.337658,0.512544,0.157362,-0.844118,0.000000,0.000000,0.000000,-1,0.001340,0.004064,0.000686,0.003355,-0.001722,0.001711
"2018-06-06 19:10:00.077 +0000",1528312200.076699,0.545676,-0.158410,0.337717,0.512498,0.157748,-0.844074,0.000000,0.000000,0.000000,-1,-0.009198,0.013901,0.003965,0.006301,-0.000110,0.001270
"2018-06-06 19:10:00.167 +0000",1528312200.167361,0.546261,-0.158771,0.338222,0.512962,0.158104,-0.843726,0.000000,0.000000,0.000000,-1,0.002374,0.004058,0.002835,-0.000007,0.002159,-0.001687
"2018-06-06 19:10:00.258 +0000",1528312200.258023,0.545721,-0.158204,0.337793,0.512553,0.157545,-0.844079,0.000000,0.000000,0.000000,-1,0.006586,0.000781,0.001740,0.001256,-0.002028,0.002511
"2018-06-06 19:10:00.349 +0000",1528312200.348685,0.545862,-0.158112,0.337762,0.512679,0.157454,-0.844019,0.000000,0.000000,0.000000,-1,-0.002867,0.009541,0.000711,0.002702,-0.004546,0.002634
"2018-06-06 19:10:00.439 +0000",1528312200.439347,0.546301,-0.158478,0.338133,0.513020,0.157815,-0.843745,0.000000,0.000000,0.000000,-1,-0.001826,0.001850,0.002838,0.000499,0.000556,0.000864
"2018-06-06 19:10:00.530 +0000",1528312200.530009,0.545958,-0.158362,0.337932,0.512740,0.157701,-0.843936,0.000000,0.000000,0.000000,-1,0.004513,-0.001407,-0.001489,-0.001662,-0.002336,-0.000043
"2018-06-06 19:10:00.621 +0000",1528312200.620671,0.546203,-0.158417,0.338029,0.512942,0.157755,-0.843803,0.000000,0.000000,0.000000,-1,-0.004963,0.005144,0.000703,-0.000583,-0.002909,0.001472
"2018-06-06 19:10:00.711 +0000",1528312200.711332,0.546412,-0.158448,0.338052,0.513116,0.157785,-0.843692,0.000000,0.000000,0.000000,-1,0.000300,0.001873,-0.000391,-0.002343,-0.000971,0.000171
"2018-06-06 19:10:00.802 +0000",1528312200.801994,0.546605,-0.158356,0.337996,0.513287,0.157695,-0.843605,0.000000,0.000000,0.000000,-1,0.000286,-0.000331,0.001754,0.002781,-0.001521,0.000587
"2018-06-06 19:10:00.893 +0000",1528312200.892656,0.546756,-0.158382,0.338034,0.513411,0.157721,-0.843524,0.000000,0.000000,0.000000,-1,-0.001816,0.000760,0.001762,-0.001845,-0.003149,0.001056
"2018-06-06 19:10:00.983 +0000",1528312200.983318,0.547001,-0.158220,0.338147,0.513631,0.157560,-0.843420,0.000000,0.000000,0.000000,-1,0.001361,-0.000315,-0.001475,-0.003606,-0.001310,0.001303
"2018-06-06 19:10:01.074 +0000",1528312201.073980,0.546823,-0.157777,0.337937,0.513517,0.157123,-0.843571,0.000000,0.000000,0.000000,-1,0.004509,-0.005799,-0.000423,0.000719,-0.001346,0.001164
"2018-06-06 19:10:01.165 +0000",1528312201.164642,0.546657,-0.157529,0.337803,0.513398,0.156879,-0.843689,0.000000,0.000000,0.000000,-1,0.000322,-0.003607,-0.002558,0.000671,-0.004352,0.001694
"2018-06-06 19:10:01.255 +0000",1528312201.255304,0.546600,-0.157756,0.337814,0.513331,0.157102,-0.843688,0.000000,0.000000,0.000000,-1,-0.003886,0.002968,-0.002529,-0.000285,-0.002500,0.001037
"2018-06-06 19:10:01.346 +0000",1528312201.345966,0.546904,-0.158079,0.337795,0.513561,0.157422,-0.843489,0.000000,0.000000,0.000000,-1,-0.000751,0.002968,-0.000385,-0.001598,-0.001889,0.000242
"2018-06-06 19:10:01.437 +0000",1528312201.436628,0.547103,-0.157934,0.337454,0.513740,0.157278,-0.843406,0.000000,0.000000,0.000000,-1,0.003461,-0.000309,-0.001480,0.002861,-0.002570,0.000557
"2018-06-06 19:10:01.527 +0000",1528312201.527290,0.547388,-0.158145,0.337478,0.513964,0.157487,-0.843231,0.000000,0.000000,0.000000,-1,-0.004970,0.004045,0.001779,0.001356,-0.002564,0.002670
"2018-06-06 19:10:01.618 +0000",1528312201.617952,0.547866,-0.158572,0.337804,0.514332,0.157909,-0.842928,0.000000,0.000000,0.000000,-1,-0.005994,0.001860,-0.001452,0.002300,0.000188,-0.000669
"2018-06-06 19:10:01.709 +0000",1528312201.708613,0.547960,-0.158765,0.337727,0.514395,0.158098,-0.842854,0.000000,0.000000,0.000000,-1,-0.002823,0.006270,-0.004729,-0.001547,-0.003878,-0.000911
"2018-06-06 19:10:01.799 +0000",1528312201.799275,0.548045,-0.158650,0.337488,0.514476,0.157986,-0.842825,0.000000,0.000000,0.000000,-1,0.005538,-0.001418,0.001683,-0.002086,0.001316,0.000006
"2018-06-06 19:10:01.890 +0000",1528312201.889937,0.547398,-0.157850,0.337183,0.513996,0.157195,-0.843266,0.000000,0.000000,0.000000,-1,0.009725,-0.003611,0.003818,0.005276,-0.001342,0.002018
"2018-06-06 19:10:01.981 +0000",1528312201.980598,0.547090,-0.157385,0.337100,0.513774,0.156736,-0.843487,0.000000,0.000000,0.000000,-1,-0.000778,0.004049,0.002789,0.002019,-0.004530,0.001201
"2018-06-06 19:10:02.071 +0000",1528312202.071260,0.547484,-0.157609,0.337306,0.514089,0.156957,-0.843254,0.000000,0.000000,0.000000,-1,-0.002858,0.000759,0.000633,0.001063,-0.002508,0.002952
"2018-06-06 19:10:02.162 +0000",1528312202.161922,0.547533,-0.157733,0.337420,0.514120,0.157080,-0.843212,0.000000,0.000000,0.000000,-1,0.001343,0.000770,0.000623,0.000574,0.000422,0.000378
"2018-06-06 19:10:02.253 +0000",1528312202.252584,0.547485,-0.157737,0.337518,0.514079,0.157084,-0.843236,0.000000,0.000000,0.000000,-1,0.001327,-0.000336,0.002771,-0.000437,-0.002268,-0.000178
"2018-06-06 19:10:02.343 +0000",1528312202.343246,0.547377,-0.157449,0.337334,0.514011,0.156800,-0.843331,0.000000,0.000000,0.000000,-1,0.004498,-0.003612,0.000603,-0.002537,-0.001175,-0.000847
"2018-06-06 19:10:02.434 +0000",1528312202.433908,0.547957,-0.157452,0.337461,0.514500,0.156803,-0.843032,0.000000,0.000000,0.000000,-1,-0.004955,0.005148,-0.000425,0.002315,-0.004734,0.003630
"2018-06-06 19:10:02.525 +0000",1528312202.524570,0.548966,-0.158001,0.337722,0.515306,0.157344,-0.842438,0.000000,0.000000,0.000000,-1,-0.004952,0.010642,-0.001485,-0.000001,-0.002590,0.002945
"2018-06-06 19:10:02.615 +0000",1528312202.615232,0.549919,-0.157976,0.338259,0.516111,0.157320,-0.841950,0.000000,0.000000,0.000000,-1,0.003368,0.001833,0.010303,-0.003293,0.001219,-0.003188
"2018-06-06 19:10:02.706 +0000",1528312202.705895,0.548922,-0.156778,0.337849,0.515368,0.156137,-0.842625,0.000000,0.000000,0.000000,-1,0.025540,-0.022206,-0.001869,0.001172,-0.002633,0.002400
"2018-06-06 19:10:02.797 +0000",1528312202.796557,0.547457,-0.155625,0.336689,0.514227,0.154998,-0.843532,0.000000,0.000000,0.000000,-1,0.002408,0.002978,-0.001743,0.002573,-0.007491,0.002742
"2018-06-06 19:10:02.887 +0000",1528312202.887219,0.548615,-0.156272,0.337388,0.515151,0.155637,-0.842850,0.000000,0.000000,0.000000,-1,-0.010216,0.006227,0.000447,0.002228,-0.000256,-0.003326
"2018-06-06 19:10:02.978 +0000",1528312202.977881,0.548583,-0.156735,0.337725,0.515086,0.156094,-0.842805,0.000000,0.000000,0.000000,-1,-0.001774,-0.009105,-0.002844,-0.000377,-0.001706,-0.003295
"2018-06-06 19:10:03.069 +0000",1528312203.068543,0.548838,-0.156836,0.337695,0.515294,0.156193,-0.842660,0.000000,0.000000,0.000000,-1,-0.001799,0.008455,-0.001717,0.000438,-0.002736,0.000253
"2018-06-06 19:10:03.159 +0000",1528312203.159205,0.549524,-0.157194,0.337862,0.515842,0.156548,-0.842259,0.000000,0.000000,0.000000,-1,-0.000752,0.002965,-0.000660,-0.003482,-0.002220,0.001957
"2018-06-06 19:10:03.250 +0000",1528312203.249867,0.549611,-0.157279,0.337881,0.515908,0.156632,-0.842203,0.000000,0.000000,0.000000,-1,0.000313,-0.003615,-0.001757,0.003226,-0.004761,0.005075
"2018-06-06 19:10:03.341 +0000",1528312203.340529,0.549594,-0.157536,0.337971,0.515873,0.156885,-0.842177,0.000000,0.000000,0.000000,-1,-0.002867,0.000754,0.001490,0.000621,0.000280,0.000807
"2018-06-06 19:10:03.431 +0000",1528312203.431191,0.549542,-0.157420,0.338033,0.515839,0.156771,-0.842219,0.000000,0.000000,0.000000,-1,0.007676,-0.005785,-0.002856,-0.000885,-0.000292,-0.000234
"2018-06-06 19:10:03.522 +0000",1528312203.521854,0.548760,-0.156574,0.337339,0.515248,0.155935,-0.842736,0.000000,0.000000,0.000000,-1,0.010822,-0.009074,-0.001797,0.002940,-0.003408,0.001473
"2018-06-06 19:10:03.613 +0000",1528312203.612516,0.548571,-0.156276,0.336921,0.515114,0.155641,-0.842872,0.000000,0.000000,0.000000,-1,-0.002850,0.000763,-0.000661,0.001595,-0.004014,0.000709
"2018-06-06 19:10:03.703 +0000",1528312203.703178,0.548795,-0.156661,0.337334,0.515271,0.156021,-0.842706,0.000000,0.000000,0.000000,-1,-0.006037,0.002930,0.003654,0.003070,-0.000992,0.001824
"2018-06-06 19:10:03.794 +0000",1528312203.793840,0.548667,-0.156873,0.337838,0.515146,0.156230,-0.842743,0.000000,0.000000,0.000000,-1,0.000276,-0.008030,0.003607,-0.001306,-0.002299,-0.001251
"2018-06-06 19:10:03.885 +0000",1528312203.884502,0.548200,-0.156658,0.337782,0.514770,0.156018,-0.843013,0.000000,0.000000,0.000000,-1,0.001353,-0.001422,-0.000679,-0.000305,-0.002850,-0.002813
"2018-06-06 19:10:03.975 +0000",1528312203.975164,0.548391,-0.156830,0.337637,0.514917,0.156188,-0.842891,0.000000,0.000000,0.000000,-1,-0.005974,0.006260,-0.004942,0.002478,-0.003295,0.001781
"2018-06-06 19:10:04.066 +0000",1528312204.065826,0.548895,-0.157194,0.337642,0.515312,0.156548,-0.842583,0.000000,0.000000,0.000000,-1,-0.006004,0.002949,-0.000649,0.001122,-0.001152,-0.002433
"2018-06-06 19:10:04.156 +0000",1528312204.156488,0.548792,-0.157432,0.337640,0.515206,0.156783,-0.842604,0.000000,0.000000,0.000000,-1,-0.000721,-0.003610,-0.003907,-0.000161,-0.004042,-0.001680
"2018-06-06 19:10:04.247 +0000",1528312204.247150,0.548792,-0.157506,0.337625,0.515200,0.156856,-0.842594,0.000000,0.000000,0.000000,-1,0.000295,-0.001429,0.000399,-0.000841,-0.001201,0.001164
"2018-06-06 19:10:04.338 +0000",1528312204.337812,0.548651,-0.157375,0.337453,0.515092,0.156726,-0.842685,0.000000,0.000000,0.000000,-1,0.003461,-0.000314,-0.001756,-0.000138,-0.002169,0.000628
"2018-06-06 19:10:04.428 +0000",1528312204.428474,0.548359,-0.157141,0.337065,0.514865,0.156496,-0.842866,0.000000,0.000000,0.000000,-1,0.003473,-0.003603,-0.002841,0.000654,-0.004320,0.000993
"2018-06-06 19:10:04.519 +0000",1528312204.519136,0.548349,-0.157333,0.336903,0.514840,0.156685,-0.842846,0.000000,0.000000,0.000000,-1,-0.001791,-0.000329,-0.001744,0.000998,-0.002892,0.002972
"2018-06-06 19:10:04.610 +0000",1528312204.609798,0.548194,-0.157666,0.336801,0.514682,0.157013,-0.842881,0.000000,0.000000,0.000000,-1,-0.000700,-0.007992,-0.006071,-0.000675,-0.003113,-0.000045
"2018-06-06 19:10:04.700 +0000",1528312204.700460,0.547882,-0.157782,0.336596,0.514410,0.157128,-0.843026,0.000000,0.000000,0.000000,-1,0.001357,-0.005814,-0.000263,-0.000616,-0.002190,0.000649
"2018-06-06 19:10:04.791 +0000",1528312204.791124,0.547772,-0.157847,0.336719,0.514312,0.157193,-0.843074,0.000000,0.000000,0.000000,-1,-0.002837,-0.004723,-0.001326,-0.002182,-0.003079,-0.000127
"2018-06-06 19:10:04.882 +0000",1528312204.881786,0.547855,-0.157815,0.336872,0.514384,0.157160,-0.843036,0.000000,0.000000,0.000000,-1,-0.002840,-0.001430,-0.001317,0.000005,-0.004283,-0.002271
"2018-06-06 19:10:04.972 +0000",1528312204.972448,0.547903,-0.157642,0.336879,0.514439,0.156990,-0.843034,0.000000,0.000000,0.000000,-1,0.000303,-0.001426,-0.000248,-0.000554,-0.004127,0.001939
"2018-06-06 19:10:05.063 +0000",1528312205.063110,0.547787,-0.157328,0.336827,0.514367,0.156680,-0.843136,0.000000,0.000000,0.000000,-1,0.004472,-0.002530,0.004042,-0.001855,-0.001299,0.000500
"2018-06-06 19:10:05.154 +0000",1528312205.153772,0.547874,-0.157052,0.337056,0.514463,0.156408,-0.843128,0.000000,0.000000,0.000000,-1,-0.001820,0.004048,0.001924,0.001254,-0.003743,0.000812
"2018-06-06 19:10:05.244 +0000",1528312205.244433,0.548232,-0.157034,0.337238,0.514766,0.156389,-0.842946,0.000000,0.000000,0.000000,-1,-0.001800,0.000764,-0.000237,0.001180,-0.002062,-0.000026
"2018-06-06 19:10:05.335 +0000",1528312205.335095,0.548051,-0.156839,0.336809,0.514629,0.156197,-0.843065,0.000000,0.000000,0.000000,-1,0.002416,0.002980,-0.002392,-0.001842,-0.003060,-0.000532
"2018-06-06 19:10:05.426 +0000",1528312205.425757,0.548715,-0.156689,0.336981,0.515201,0.156049,-0.842743,0.000000,0.000000,0.000000,-1,-0.000806,0.007326,0.006234,0.002865,-0.001417,0.000092
"2018-06-06 19:10:05.516 +0000",1528312205.516419,0.549138,-0.156689,0.337377,0.515558,0.156049,-0.842525,0.000000,0.000000,0.000000,-1,-0.000758,0.000763,0.000836,0.005805,-0.003095,0.001308
"2018-06-06 19:10:05.607 +0000",1528312205.607081,0.548795,-0.156749,0.337081,0.515264,0.156108,-0.842694,0.000000,0.000000,0.000000,-1,0.002441,-0.005793,-0.004568,-0.001257,-0.001689,0.001904
"2018-06-06 19:10:05.698 +0000",1528312205.697743,0.548439,-0.156886,0.336999,0.514953,0.156243,-0.842859,0.000000,0.000000,0.000000,-1,-0.003921,-0.003649,0.003135,-0.003142,-0.002496,-0.000464
"2018-06-06 19:10:05.788 +0000",1528312205.788405,0.548709,-0.157287,0.337546,0.515148,0.156639,-0.842666,0.000000,0.000000,0.000000,-1,-0.007084,-0.000369,0.004228,0.000874,-0.002937,0.003921
"2018-06-06 19:10:05.879 +0000",1528312205.879068,0.549064,-0.157899,0.338134,0.515396,0.157244,-0.842402,0.000000,0.000000,0.000000,-1,-0.008114,0.004033,0.001016,-0.001648,-0.001803,-0.001623
"2018-06-06 19:10:05.970 +0000",1528312205.969730,0.548944,-0.157980,0.338087,0.515289,0.157323,-0.842452,0.000000,0.000000,0.000000,-1,0.001385,-0.000309,-0.004397,-0.000030,-0.000249,-0.001008
"2018-06-06 19:10:06.060 +0000",1528312206.060392,0.548758,-0.157759,0.337965,0.515150,0.157106,-0.842578,0.000000,0.000000,0.000000,-1,0.004476,0.001863,0.003132,0.001573,-0.003358,0.000979
"2018-06-06 19:10:06.151 +0000",1528312206.151054,0.549034,-0.157789,0.338025,0.515380,0.157135,-0.842432,0.000000,0.000000,0.000000,-1,-0.003933,0.008427,0.003171,0.002900,-0.003738,0.001535
"2018-06-06 19:10:06.242 +0000",1528312206.241716,0.549245,-0.157932,0.338090,0.515547,0.157277,-0.842304,0.000000,0.000000,0.000000,-1,0.000302,-0.000330,-0.000092,-0.000318,-0.000798,0.002246
"2018-06-06 19:10:06.332 +0000",1528312206.332378,0.549143,-0.157757,0.338021,0.515475,0.157104,-0.842380,0.000000,0.000000,0.000000,-1,0.003448,0.004070,-0.000086,-0.001940,-0.003799,0.000552
"2018-06-06 19:10:06.423 +0000",1528312206.423040,0.549211,-0.157440,0.337780,0.515558,0.156790,-0.842387,0.000000,0.000000,0.000000,-1,0.002399,0.002969,-0.000087,0.001379,-0.001654,0.000056
"2018-06-06 19:10:06.514 +0000",1528312206.513702,0.549564,-0.157398,0.337827,0.515859,0.156748,-0.842211,0.000000,0.000000,0.000000,-1,-0.001819,0.002948,0.002074,0.001628,-0.002009,0.002154
"2018-06-06 19:10:06.604 +0000",1528312206.604364,0.549805,-0.157426,0.337939,0.516059,0.156776,-0.842083,0.000000,0.000000,0.000000,-1,0.002414,-0.003613,-0.001182,-0.003349,-0.001808,-0.001499
"2018-06-06 19:10:06.695 +0000",1528312206.695027,0.549795,-0.157219,0.337837,0.516068,0.156572,-0.842116,0.000000,0.000000,0.000000,-1,0.002403,-0.001421,-0.000147,0.000839,-0.005037,0.003569
"2018-06-06 19:10:06.786 +0000",1528312206.785689,0.550136,-0.157692,0.337732,0.516317,0.157039,-0.841876,0.000000,0.000000,0.000000,-1,-0.009125,0.006249,-0.004400,-0.001027,-0.004787,0.002689
"2018-06-06 19:10:06.876 +0000",1528312206.876351,0.550820,-0.158041,0.337514,0.516863,0.157384,-0.841476,0.000000,0.000000,0.000000,-1,0.006620,-0.000302,-0.002304,-0.000414,-0.000295,-0.002930
"2018-06-06 19:10:06.967 +0000",1528312206.967013,0.549659,-0.157866,0.336345,0.515900,0.157211,-0.842099,0.000000,0.000000,0.000000,-1,0.014080,-0.016698,-0.014201,0.003021,-0.002929,0.001325
"2018-06-06 19:10:07.058 +0000",1528312207.057675,0.549812,-0.158221,0.336361,0.516000,0.157562,-0.841972,0.000000,0.000000,0.000000,-1,-0.013407,0.012783,0.005309,-0.002923,-0.004074,0.001625
"2018-06-06 19:10:07.148 +0000",1528312207.148337,0.548886,-0.158850,0.336726,0.515168,0.158183,-0.842365,0.000000,0.000000,0.000000,-1,-0.004876,-0.025565,-0.006654,0.002883,-0.003261,-0.001247
"2018-06-06 19:10:07.239 +0000",1528312207.238999,0.546206,-0.158604,0.335818,0.512929,0.157940,-0.843776,0.000000,0.000000,0.000000,-1,0.016180,-0.033168,-0.012103,-0.002736,0.000446,-0.004460
"2018-06-06 19:10:07.330 +0000",1528312207.329661,0.544595,-0.158191,0.334474,0.511603,0.157532,-0.844657,0.000000,0.000000,0.000000,-1,0.010898,-0.018921,-0.009898,-0.000388,-0.004150,0.004203
"2018-06-06 19:10:07.420 +0000",1528312207.420324,0.543490,-0.158199,0.333957,0.510669,0.157540,-0.845221,0.000000,0.000000,0.000000,-1,0.013946,-0.006887,0.001962,-0.002719,0.006385,-0.005716
"2018-06-06 19:10:07.511 +0000",1528312207.510986,0.544328,-0.156853,0.333923,0.511486,0.156211,-0.844974,0.000000,0.000000,0.000000,-1,-0.001963,0.032525,0.017173,0.000279,-0.007224,0.001865
"2018-06-06 19:10:07.602 +0000",1528312207.601648,0.546788,-0.157585,0.335504,0.513504,0.156933,-0.843615,0.000000,0.000000,0.000000,-1,-0.026041,0.034699,0.006478,0.020829,-0.003003,0.009035
"2018-06-06 19:10:07.692 +0000",1528312207.692309,0.549165,-0.160212,0.338200,0.515291,0.159528,-0.842037,0.000000,0.000000,0.000000,-1,-0.058703,0.036750,0.019459,-0.000063,0.008975,-0.000492
"2018-06-06 19:10:07.783 +0000",1528312207.782971,0.552345,-0.162488,0.342030,0.517774,0.161774,-0.840083,0.000000,0.000000,0.000000,-1,-0.003989,0.006201,0.010640,-0.011136,0.002304,-0.012334
"2018-06-06 19:10:07.874 +0000",1528312207.873633,0.552022,-0.161406,0.341629,0.517594,0.160706,-0.840399,0.000000,0.000000,0.000000,-1,0.002413,0.013962,-0.003336,0.005645,-0.017960,0.006064
"2018-06-06 19:10:07.964 +0000",1528312207.964295,0.556111,-0.164056,0.343405,0.520799,0.163321,-0.837911,0.000000,0.000000,0.000000,-1,-0.056482,0.048903,0.002279,0.007307,-0.009589,0.009053
"2018-06-06 19:10:08.055 +0000",1528312208.054957,0.559742,-0.168613,0.346911,0.523438,0.167815,-0.835375,0.000000,0.000000,0.000000,-1,-0.045918,0.012720,-0.001077,0.006088,0.004563,-0.000349
"2018-06-06 19:10:08.146 +0000",1528312208.145619,0.558393,-0.170593,0.347203,0.522133,0.169766,-0.835797,0.000000,0.000000,0.000000,-1,-0.010132,-0.021188,-0.006636,-0.009621,0.004062,-0.004810
"2018-06-06 19:10:08.236 +0000",1528312208.236281,0.556944,-0.170989,0.347726,0.520886,0.170157,-0.836495,0.000000,0.000000,0.000000,-1,-0.004999,-0.017943,0.008421,-0.007306,-0.000998,0.000741
"2018-06-06 19:10:08.327 +0000",1528312208.326943,0.556440,-0.170164,0.347812,0.520539,0.169344,-0.836876,0.000000,0.000000,0.000000,-1,0.016035,0.005195,0.001986,-0.014344,-0.007067,-0.004508
"2018-06-06 19:10:08.418 +0000",1528312208.417605,0.558742,-0.168965,0.347529,0.522570,0.168163,-0.835848,0.000000,0.000000,0.000000,-1,0.016016,0.016168,0.003094,0.002423,0.000859,0.003115
"2018-06-06 19:10:08.508 +0000",1528312208.508267,0.558547,-0.166980,0.346632,0.522584,0.166205,-0.836231,0.000000,0.000000,0.000000,-1,0.031851,-0.023284,-0.002436,0.007278,0.000634,0.000950
"2018-06-06 19:10:08.599 +0000",1528312208.598929,0.555766,-0.165042,0.344498,0.520425,0.164294,-0.837953,0.000000,0.000000,0.000000,-1,0.022442,-0.017795,-0.008852,0.000540,-0.008364,0.002076
"2018-06-06 19:10:08.690 +0000",1528312208.689592,0.555301,-0.164373,0.343712,0.520093,0.163634,-0.838288,0.000000,0.000000,0.000000,-1,0.001309,0.009536,0.004184,-0.002469,-0.002943,0.004121
"2018-06-06 19:10:08.780 +0000",1528312208.780254,0.556291,-0.164365,0.344266,0.520924,0.163626,-0.837774,0.000000,0.000000,0.000000,-1,-0.000788,0.006239,0.004181,0.004619,0.000086,0.003118
"2018-06-06 19:10:08.871 +0000",1528312208.870916,0.555396,-0.163861,0.344049,0.520217,0.163129,-0.838310,0.000000,0.000000,0.000000,-1,0.011892,-0.012356,-0.003432,0.001298,-0.003049,-0.000161
"2018-06-06 19:10:08.962 +0000",1528312208.961578,0.553739,-0.162984,0.342963,0.518902,0.162263,-0.839292,0.000000,0.000000,0.000000,-1,0.019293,-0.019997,-0.008849,-0.002850,-0.001695,0.000135
"2018-06-06 19:10:09.052 +0000",1528312209.052240,0.552156,-0.161398,0.341619,0.517707,0.160698,-0.840330,0.000000,0.000000,0.000000,-1,0.020284,-0.009044,-0.002366,-0.006996,-0.001427,-0.002947
"2018-06-06 19:10:09.143 +0000",1528312209.142902,0.551986,-0.160029,0.341051,0.517680,0.159347,-0.840605,0.000000,0.000000,0.000000,-1,0.006556,0.006255,0.005239,0.002172,-0.003112,-0.002672
"2018-06-06 19:10:09.234 +0000",1528312209.233564,0.552472,-0.159497,0.340954,0.518132,0.158821,-0.840426,0.000000,0.000000,0.000000,-1,0.004511,-0.000310,-0.001229,0.006496,-0.003090,0.002169
"2018-06-06 19:10:09.324 +0000",1528312209.324226,0.552135,-0.159314,0.340564,0.517864,0.158641,-0.840625,0.000000,0.000000,0.000000,-1,-0.002842,0.000767,-0.001209,0.004597,-0.002635,-0.001309
"2018-06-06 19:10:09.415 +0000",1528312209.414888,0.551922,-0.159828,0.340748,0.517642,0.159148,-0.840666,0.000000,0.000000,0.000000,-1,-0.009122,-0.004730,-0.003362,0.000440,-0.004378,0.002653
"2018-06-06 19:10:09.506 +0000",1528312209.505550,0.551405,-0.160207,0.340662,0.517176,0.159523,-0.840881,0.000000,0.000000,0.000000,-1,-0.003885,0.001866,-0.002279,-0.002253,-0.000526,-0.003418
"2018-06-06 19:10:09.596 +0000",1528312209.596212,0.551384,-0.160319,0.340700,0.517149,0.159633,-0.840877,0.000000,0.000000,0.000000,-1,-0.001793,0.001867,-0.001208,0.002566,-0.001750,0.000103
"2018-06-06 19:10:09.687 +0000",1528312209.686873,0.551393,-0.160378,0.340756,0.517151,0.159692,-0.840865,0.000000,0.000000,0.000000,-1,0.000305,-0.003620,-0.000153,0.000259,-0.002618,0.002333
"2018-06-06 19:10:09.778 +0000",1528312209.777535,0.551131,-0.160299,0.340586,0.516938,0.159613,-0.841011,0.000000,0.000000,0.000000,-1,0.003464,-0.003608,-0.001237,0.000610,-0.000891,0.000801
"2018-06-06 19:10:09.868 +0000",1528312209.868197,0.550841,-0.160224,0.340630,0.516700,0.159539,-0.841171,0.000000,0.000000,0.000000,-1,-0.000755,-0.002531,0.000927,-0.000373,-0.001290,0.001541
"2018-06-06 19:10:09.959 +0000",1528312209.958859,0.550965,-0.159969,0.340812,0.516826,0.159288,-0.841141,0.000000,0.000000,0.000000,-1,-0.000775,0.001851,0.003091,-0.003200,-0.002137,-0.001068
"2018-06-06 19:10:10.050 +0000",1528312210.049521,0.551225,-0.159728,0.340881,0.517064,0.159049,-0.841040,0.000000,0.000000,0.000000,-1,0.003452,0.000779,-0.000149,0.002223,-0.002296,0.000464
"2018-06-06 19:10:10.140 +0000",1528312210.140183,0.551324,-0.159512,0.340775,0.517166,0.158836,-0.841017,0.000000,0.000000,0.000000,-1,-0.000762,0.005153,0.000949,0.001297,-0.001091,-0.001420
"2018-06-06 19:10:10.231 +0000",1528312210.230845,0.551470,-0.159504,0.340868,0.517289,0.158828,-0.840943,0.000000,0.000000,0.000000,-1,-0.001793,0.001866,-0.001209,0.001708,-0.003998,0.003709
"2018-06-06 19:10:10.322 +0000",1528312210.321507,0.551403,-0.159498,0.340776,0.517233,0.158823,-0.840979,0.000000,0.000000,0.000000,-1,0.000277,-0.000341,0.003082,-0.002676,-0.000208,-0.002695
"2018-06-06 19:10:10.412 +0000",1528312210.412169,0.551594,-0.159458,0.340905,0.517397,0.158783,-0.840885,0.000000,0.000000,0.000000,-1,0.002393,0.000771,0.000929,0.000868,-0.001450,0.000111
"2018-06-06 19:10:10.503 +0000",1528312210.502831,0.551612,-0.159408,0.340795,0.517416,0.158733,-0.840883,0.000000,0.000000,0.000000,-1,0.000302,-0.000328,-0.000145,0.001657,-0.003353,0.000917
"2018-06-06 19:10:10.593 +0000",1528312210.593493,0.551841,-0.159637,0.340920,0.517590,0.158960,-0.840733,0.000000,0.000000,0.000000,-1,-0.003911,0.002949,0.000950,0.001483,-0.002085,0.000248
"2018-06-06 19:10:10.684 +0000",1528312210.684155,0.551995,-0.159855,0.341079,0.517701,0.159175,-0.840624,0.000000,0.000000,0.000000,-1,0.000284,0.000761,0.002010,-0.000260,-0.000301,-0.001066
"2018-06-06 19:10:10.775 +0000",1528312210.774817,0.551855,-0.159674,0.340957,0.517598,0.158996,-0.840721,0.000000,0.000000,0.000000,-1,0.005532,-0.003620,0.003031,0.000331,-0.002441,0.000526
"2018-06-06 19:10:10.865 +0000",1528312210.865479,0.551504,-0.159501,0.340748,0.517318,0.158826,-0.840926,0.000000,0.000000,0.000000,-1,0.002415,-0.004709,-0.001267,0.001038,-0.003278,0.002455
"2018-06-06 19:10:10.956 +0000",1528312210.956141,0.551673,-0.159795,0.340946,0.517435,0.159116,-0.840799,0.000000,0.000000,0.000000,-1,-0.007081,0.005126,0.003086,-0.001536,-0.002027,-0.000189
"2018-06-06 19:10:11.047 +0000",1528312211.046803,0.551861,-0.160050,0.341145,0.517572,0.159367,-0.840667,0.000000,0.000000,0.000000,-1,-0.003857,-0.001415,-0.005546,-0.003000,-0.004078,0.001968
"2018-06-06 19:10:11.137 +0000",1528312211.137465,0.551907,-0.159976,0.341015,0.517617,0.159295,-0.840653,0.000000,0.000000,0.000000,-1,0.002401,0.000775,-0.000176,-0.001733,-0.001229,-0.001724
"2018-06-06 19:10:11.228 +0000",1528312211.228127,0.551781,-0.159699,0.341004,0.517534,0.159021,-0.840756,0.000000,0.000000,0.000000,-1,0.002400,0.001873,-0.000172,-0.000169,-0.003046,0.002759
"2018-06-06 19:10:11.319 +0000",1528312211.318789,0.551836,-0.159693,0.341089,0.517581,0.159015,-0.840728,0.000000,0.000000,0.000000,-1,-0.000759,0.001860,0.000910,-0.001285,-0.003452,0.001525
"2018-06-06 19:10:11.409 +0000",1528312211.409451,0.552055,-0.160044,0.341215,0.517736,0.159362,-0.840567,0.000000,0.000000,0.000000,-1,-0.004976,0.009528,0.002018,0.003627,0.000321,0.000311
"2018-06-06 19:10:11.500 +0000",1528312211.500113,0.552079,-0.160132,0.341263,0.517749,0.159448,-0.840543,0.000000,0.000000,0.000000,-1,0.001372,-0.003610,-0.002337,0.000531,-0.001245,-0.001300
"2018-06-06 19:10:11.591 +0000",1528312211.590775,0.551713,-0.159898,0.341104,0.517461,0.159218,-0.840764,0.000000,0.000000,0.000000,-1,0.002403,-0.001420,-0.000182,0.000834,-0.001716,-0.000240
"2018-06-06 19:10:11.681 +0000",1528312211.681438,0.551630,-0.159863,0.341023,0.517394,0.159183,-0.840811,0.000000,0.000000,0.000000,-1,0.000331,-0.004706,-0.003414,-0.003142,-0.001697,0.000556
"2018-06-06 19:10:11.772 +0000",1528312211.772100,0.551694,-0.160150,0.340577,0.517423,0.159466,-0.840740,0.000000,0.000000,0.000000,-1,-0.017533,0.020499,-0.005448,-0.004865,-0.012921,0.004604
"2018-06-06 19:10:11.863 +0000",1528312211.862762,0.556019,-0.161935,0.342715,0.520904,0.161229,-0.838251,0.000000,0.000000,0.000000,-1,-0.026139,0.042331,0.018299,0.002503,0.004039,0.008081
"2018-06-06 19:10:11.953 +0000",1528312211.953424,0.557535,-0.161931,0.344602,0.522174,0.161224,-0.837461,0.000000,0.000000,0.000000,-1,-0.005081,0.007271,0.015998,-0.001606,0.000916,-0.004946
"2018-06-06 19:10:12.044 +0000",1528312212.044086,0.559791,-0.162409,0.346878,0.524022,0.161696,-0.836215,0.000000,0.000000,0.000000,-1,-0.008119,0.009521,0.000952,0.015956,-0.006423,0.005237
"2018-06-06 19:10:12.135 +0000",1528312212.134748,0.557847,-0.162238,0.344518,0.522409,0.161528,-0.837256,0.000000,0.000000,0.000000,-1,0.031053,-0.027545,-0.034741,-0.002787,-0.001112,-0.003259
"2018-06-06 19:10:12.225 +0000",1528312212.225410,0.555916,-0.161240,0.341402,0.520876,0.160542,-0.838400,0.000000,0.000000,0.000000,-1,0.007696,0.007401,-0.006620,-0.012789,0.003261,-0.002710
"2018-06-06 19:10:12.316 +0000",1528312212.316073,0.558170,-0.160858,0.343125,0.522797,0.160165,-0.837276,0.000000,0.000000,0.000000,-1,-0.007327,0.029152,0.032201,0.002105,0.000128,0.004680
"2018-06-06 19:10:12.407 +0000",1528312212.406735,0.559179,-0.159196,0.344307,0.523783,0.158525,-0.836972,0.000000,0.000000,0.000000,-1,0.028615,-0.012359,0.007258,0.006033,-0.002198,-0.003040
"2018-06-06 19:10:12.497 +0000",1528312212.497397,0.556736,-0.156795,0.341713,0.521936,0.156154,-0.838570,0.000000,0.000000,0.000000,-1,0.037214,-0.027605,-0.016470,-0.002740,-0.006282,0.001717
"2018-06-06 19:10:12.588 +0000",1528312212.588059,0.555531,-0.155673,0.340046,0.521017,0.155045,-0.839346,0.000000,0.000000,0.000000,-1,0.005555,-0.002512,-0.000190,-0.000723,-0.005478,0.001303
"2018-06-06 19:10:12.679 +0000",1528312212.678721,0.556869,-0.156166,0.340955,0.522099,0.155532,-0.838583,0.000000,0.000000,0.000000,-1,-0.008165,0.006200,0.007397,0.002177,0.000642,0.000647
"2018-06-06 19:10:12.769 +0000",1528312212.769383,0.556159,-0.155787,0.341112,0.521534,0.155158,-0.839004,0.000000,0.000000,0.000000,-1,0.006630,-0.018970,-0.001314,-0.003086,-0.004371,0.001205
"2018-06-06 19:10:12.860 +0000",1528312212.860045,0.555712,-0.155913,0.341230,0.521150,0.155282,-0.839220,0.000000,0.000000,0.000000,-1,-0.008152,0.009504,0.005256,-0.005128,-0.001031,0.001970
"2018-06-06 19:10:12.951 +0000",1528312212.950708,0.556794,-0.155859,0.341952,0.522062,0.155229,-0.838663,0.000000,0.000000,0.000000,-1,0.003391,0.011727,0.006312,-0.003049,0.003065,-0.002447
"2018-06-06 19:10:13.041 +0000",1528312213.041370,0.557332,-0.155082,0.341617,0.522576,0.154461,-0.838484,0.000000,0.000000,0.000000,-1,0.009778,0.000808,-0.003415,0.000648,-0.002926,-0.001787
"2018-06-06 19:10:13.132 +0000",1528312213.132032,0.557120,-0.154481,0.340862,0.522448,0.153868,-0.838673,0.000000,0.000000,0.000000,-1,0.007667,-0.004696,-0.001275,0.002378,-0.004682,0.006306
"2018-06-06 19:10:13.223 +0000",1528312213.222694,0.556961,-0.154414,0.340556,0.522319,0.153801,-0.838765,0.000000,0.000000,0.000000,-1,-0.008120,0.001833,0.002007,-0.003078,-0.001381,0.000432
"2018-06-06 19:10:13.313 +0000",1528312213.313356,0.557228,-0.154848,0.341121,0.522508,0.154230,-0.838569,0.000000,0.000000,0.000000,-1,-0.012360,0.007292,0.006335,-0.001161,-0.005731,-0.000497
"2018-06-06 19:10:13.404 +0000",1528312213.404018,0.557929,-0.155491,0.341494,0.523043,0.154865,-0.838118,0.000000,0.000000,0.000000,-1,0.002417,0.001881,-0.002320,0.001447,0.005062,-0.001695
"2018-06-06 19:10:13.495 +0000",1528312213.494681,0.557357,-0.155043,0.340899,0.522600,0.154422,-0.838476,0.000000,0.000000,0.000000,-1,0.007692,-0.005780,-0.004505,-0.001192,-0.002673,0.002127
"2018-06-06 19:10:13.585 +0000",1528312213.585343,0.557942,-0.155259,0.341148,0.523073,0.154636,-0.838142,0.000000,0.000000,0.000000,-1,-0.004987,0.011717,0.003104,0.004591,-0.003726,0.003914
"2018-06-06 19:10:13.676 +0000",1528312213.676005,0.559744,-0.155696,0.342318,0.524546,0.155067,-0.837141,0.000000,0.000000,0.000000,-1,-0.008186,0.010584,0.009562,-0.003047,0.001076,-0.000902
"2018-06-06 19:10:13.767 +0000",1528312213.766667,0.560318,-0.155221,0.342777,0.525066,0.154598,-0.836902,0.000000,0.000000,0.000000,-1,0.012945,-0.014551,-0.003466,-0.004040,-0.003704,-0.003659
"2018-06-06 19:10:13.857 +0000",1528312213.857329,0.560616,-0.154942,0.342635,0.525338,0.154323,-0.836782,0.000000,0.000000,0.000000,-1,-0.006031,0.013915,0.002038,-0.003015,-0.008419,0.003179
"2018-06-06 19:10:13.948 +0000",1528312213.947991,0.561256,-0.155250,0.342698,0.525848,0.154627,-0.836405,0.000000,0.000000,0.000000,-1,-0.000724,-0.000318,-0.003394,0.000015,0.000235,-0.001531
"2018-06-06 19:10:14.039 +0000",1528312214.038653,0.561151,-0.154910,0.342658,0.525789,0.154291,-0.836505,0.000000,0.000000,0.000000,-1,0.006636,-0.016769,-0.002383,-0.003694,-0.000879,-0.002118
"2018-06-06 19:10:14.129 +0000",1528312214.129316,0.560499,-0.154245,0.342299,0.525298,0.153634,-0.836934,0.000000,0.000000,0.000000,-1,0.002389,-0.003625,0.001968,-0.001860,-0.005777,0.002980
"2018-06-06 19:10:14.220 +0000",1528312214.219978,0.560543,-0.154212,0.342189,0.525337,0.153601,-0.836916,0.000000,0.000000,0.000000,-1,-0.000748,0.007357,-0.001220,0.002297,-0.002188,-0.000777
"2018-06-06 19:10:14.311 +0000",1528312214.310640,0.561072,-0.154401,0.342311,0.525764,0.153789,-0.836613,0.000000,0.000000,0.000000,-1,-0.001792,0.000768,-0.001237,-0.003548,-0.003703,0.002354
"2018-06-06 19:10:14.401 +0000",1528312214.401302,0.561665,-0.154728,0.342504,0.526234,0.154112,-0.836258,0.000000,0.000000,0.000000,-1,-0.002865,0.007342,0.000936,0.001446,0.000078,0.001435
"2018-06-06 19:10:14.492 +0000",1528312214.491964,0.561706,-0.154742,0.342515,0.526266,0.154125,-0.836235,0.000000,0.000000,0.000000,-1,0.006613,-0.001405,-0.001262,-0.000921,0.002018,0.001457
"2018-06-06 19:10:14.583 +0000",1528312214.582626,0.561043,-0.154335,0.342009,0.525745,0.153723,-0.836637,0.000000,0.000000,0.000000,-1,0.004524,-0.004699,-0.002343,-0.002048,-0.003943,0.003171
"2018-06-06 19:10:14.673 +0000",1528312214.673288,0.560883,-0.154449,0.341860,0.525602,0.153836,-0.836706,0.000000,0.000000,0.000000,-1,-0.005983,0.007351,-0.003359,-0.001661,-0.002652,0.001013
"2018-06-06 19:10:14.764 +0000",1528312214.763950,0.561488,-0.154974,0.342174,0.526065,0.154355,-0.836319,0.000000,0.000000,0.000000,-1,-0.000742,0.001869,-0.001235,-0.000980,0.000384,-0.002060
"2018-06-06 19:10:14.855 +0000",1528312214.854612,0.560970,-0.154685,0.341736,0.525655,0.154069,-0.836630,0.000000,0.000000,0.000000,-1,0.008783,-0.013441,-0.008831,0.000651,-0.001984,-0.002405
"2018-06-06 19:10:14.945 +0000",1528312214.945275,0.560630,-0.154501,0.341360,0.525386,0.153887,-0.836832,0.000000,0.000000,0.000000,-1,0.002421,-0.002508,-0.002330,0.002049,-0.003283,0.003504
"2018-06-06 19:10:15.036 +0000",1528312215.035937,0.560871,-0.154866,0.341702,0.525558,0.154248,-0.836658,0.000000,0.000000,0.000000,-1,-0.008070,0.001863,-0.004445,-0.001632,-0.001935,0.001605
"2018-06-06 19:10:15.127 +0000",1528312215.126599,0.560962,-0.155276,0.341866,0.525600,0.154652,-0.836556,0.000000,0.000000,0.000000,-1,-0.004942,-0.000338,-0.001232,-0.005215,-0.003499,0.001077
"2018-06-06 19:10:15.217 +0000",1528312215.217261,0.561148,-0.155126,0.341965,0.525769,0.154505,-0.836478,0.000000,0.000000,0.000000,-1,0.004479,-0.001427,0.003046,-0.000454,0.005056,-0.004251
"2018-06-06 19:10:15.308 +0000",1528312215.307923,0.560450,-0.154199,0.341650,0.525261,0.153589,-0.836966,0.000000,0.000000,0.000000,-1,0.011854,-0.006886,0.000862,0.005623,-0.002618,0.005789
"2018-06-06 19:10:15.399 +0000",1528312215.398585,0.560561,-0.154328,0.341874,0.525342,0.153716,-0.836891,0.000000,0.000000,0.000000,-1,-0.014446,0.009493,0.004197,-0.003858,-0.007506,0.004219
"2018-06-06 19:10:15.489 +0000",1528312215.489247,0.561466,-0.155061,0.342500,0.526039,0.154440,-0.836320,0.000000,0.000000,0.000000,-1,-0.002904,0.005125,0.006309,-0.006401,0.001474,-0.001235
"2018-06-06 19:10:15.580 +0000",1528312215.579909,0.561777,-0.154894,0.342638,0.526314,0.154275,-0.836178,0.000000,0.000000,0.000000,-1,0.005531,-0.002522,0.003041,0.001168,0.000357,-0.000797
"2018-06-06 19:10:15.671 +0000",1528312215.670572,0.561832,-0.154263,0.342484,0.526411,0.153652,-0.836231,0.000000,0.000000,0.000000,-1,0.011855,-0.007984,0.000859,0.004228,-0.001110,0.002170
"2018-06-06 19:10:15.761 +0000",1528312215.761234,0.560897,-0.153850,0.341678,0.525663,0.153244,-0.836777,0.000000,0.000000,0.000000,-1,0.004540,-0.004688,-0.004492,0.003207,0.002350,-0.000351
"2018-06-06 19:10:15.852 +0000",1528312215.851896,0.558986,-0.153108,0.340305,0.524123,0.152511,-0.837875,0.000000,0.000000,0.000000,-1,0.020340,-0.016701,-0.008866,-0.006499,-0.000563,-0.004394
"2018-06-06 19:10:15.943 +0000",1528312215.942558,0.558918,-0.153114,0.339911,0.524065,0.152516,-0.837911,0.000000,0.000000,0.000000,-1,-0.016612,0.025927,0.010704,-0.000872,-0.002385,0.005330
"2018-06-06 19:10:16.033 +0000",1528312216.033221,0.560780,-0.154004,0.341130,0.525552,0.153396,-0.836818,0.000000,0.000000,0.000000,-1,-0.009164,0.004033,0.000943,0.000311,0.001039,-0.002583
"2018-06-06 19:10:16.124 +0000",1528312216.123883,0.560201,-0.153772,0.340894,0.525087,0.153166,-0.837152,0.000000,0.000000,0.000000,-1,0.011877,-0.013463,-0.001308,-0.001451,0.000825,-0.000540
"2018-06-06 19:10:16.215 +0000",1528312216.214545,0.559314,-0.152953,0.340541,0.524410,0.152357,-0.837724,0.000000,0.000000,0.000000,-1,0.002350,0.002945,0.006291,-0.001064,-0.005613,0.005372
"2018-06-06 19:10:16.305 +0000",1528312216.305207,0.561168,-0.154252,0.342342,0.525857,0.153641,-0.836582,0.000000,0.000000,0.000000,-1,-0.025972,0.006182,0.000987,0.016593,-0.002685,0.007144
"2018-06-06 19:10:16.396 +0000",1528312216.395869,0.559775,-0.156550,0.342789,0.524502,0.155911,-0.837012,0.000000,0.000000,0.000000,-1,-0.020546,-0.036544,-0.016360,0.000385,-0.005582,0.003928
"2018-06-06 19:10:16.487 +0000",1528312216.486531,0.558747,-0.158519,0.343317,0.523478,0.157856,-0.837289,0.000000,0.000000,0.000000,-1,-0.023910,0.003969,0.006354,-0.016413,0.000790,-0.002997
"2018-06-06 19:10:16.577 +0000",1528312216.577193,0.559872,-0.159980,0.345142,0.524296,0.159298,-0.836503,0.000000,0.000000,0.000000,-1,-0.016547,0.001799,0.005256,0.001537,-0.000363,0.000657
"2018-06-06 19:10:16.668 +0000",1528312216.667854,0.561169,-0.161302,0.346332,0.525268,0.160604,-0.835643,0.000000,0.000000,0.000000,-1,-0.028162,0.030290,0.009668,-0.008773,-0.001287,-0.004063
"2018-06-06 19:10:16.759 +0000",1528312216.758516,0.564099,-0.162470,0.348042,0.527614,0.161756,-0.833942,0.000000,0.000000,0.000000,-1,0.001316,0.011739,0.003094,-0.000544,-0.002989,0.004031
"2018-06-06 19:10:16.849 +0000",1528312216.849178,0.565162,-0.162170,0.347569,0.528526,0.161460,-0.833421,0.000000,0.000000,0.000000,-1,0.011895,0.018400,-0.007668,-0.001182,-0.002662,0.000902
"2018-06-06 19:10:16.940 +0000",1528312216.939840,0.565480,-0.161290,0.346651,0.528867,0.160592,-0.833373,0.000000,0.000000,0.000000,-1,-0.002942,0.010598,0.010629,0.004199,-0.002236,0.006209
"2018-06-06 19:10:17.031 +0000",1528312217.030502,0.566022,-0.161895,0.348189,0.529266,0.161189,-0.833004,0.000000,0.000000,0.000000,-1,-0.014437,0.000713,0.004173,0.010438,-0.005244,0.004208
"2018-06-06 19:10:17.121 +0000",1528312217.121164,0.563746,-0.161691,0.347713,0.527386,0.160987,-0.834234,0.000000,0.000000,0.000000,-1,0.030842,-0.039737,-0.005729,-0.006055,0.005349,0.003775
"2018-06-06 19:10:17.212 +0000",1528312217.211826,0.559945,-0.159071,0.345172,0.524434,0.158401,-0.836587,0.000000,0.000000,0.000000,-1,0.057123,-0.037455,-0.009009,-0.021062,0.007874,-0.010032
"2018-06-06 19:10:17.302 +0000",1528312217.302488,0.556927,-0.153353,0.342228,0.522377,0.152753,-0.838921,0.000000,0.000000,0.000000,-1,0.075847,-0.011142,0.011461,-0.012932,-0.001080,-0.003730
"2018-06-06 19:10:17.393 +0000",1528312217.393150,0.556879,-0.148324,0.339161,0.522736,0.147781,-0.839588,0.000000,0.000000,0.000000,-1,0.067607,-0.000093,-0.011076,0.015137,-0.006775,0.000889
"2018-06-06 19:10:17.484 +0000",1528312217.483812,0.554689,-0.144971,0.334207,0.521154,0.144464,-0.841147,0.000000,0.000000,0.000000,-1,0.044658,-0.011054,-0.030417,0.011698,-0.003274,0.005210
"2018-06-06 19:10:17.574 +0000",1528312217.574474,0.553553,-0.143297,0.330419,0.520325,0.142807,-0.841943,0.000000,0.000000,0.000000,-1,0.020401,0.006398,-0.019554,-0.006363,-0.005234,0.002832
"2018-06-06 19:10:17.665 +0000",1528312217.665136,0.554815,-0.143334,0.330293,0.521384,0.142843,-0.841281,0.000000,0.000000,0.000000,-1,-0.009230,0.012785,0.008499,0.004311,-0.004446,0.003757
"2018-06-06 19:10:17.756 +0000",1528312217.755798,0.554858,-0.143271,0.331182,0.521425,0.142781,-0.841266,0.000000,0.000000,0.000000,-1,-0.005002,-0.005861,0.007359,0.012968,-0.000523,-0.000179
"2018-06-06 19:10:17.846 +0000",1528312217.846460,0.553843,-0.143461,0.331762,0.520556,0.142970,-0.841773,0.000000,0.000000,0.000000,-1,-0.003915,-0.010234,0.003039,-0.000918,-0.002757,-0.000879
"2018-06-06 19:10:17.937 +0000",1528312217.937123,0.553106,-0.143879,0.332277,0.519905,0.143383,-0.842105,0.000000,0.000000,0.000000,-1,-0.008098,-0.003645,-0.000159,0.000923,-0.004864,0.000353
"2018-06-06 19:10:18.028 +0000",1528312218.027785,0.552576,-0.144119,0.332298,0.519440,0.143620,-0.842351,0.000000,0.000000,0.000000,-1,0.004546,-0.018965,-0.003460,-0.001053,0.000926,-0.003856
"2018-06-06 19:10:18.118 +0000",1528312218.118447,0.551538,-0.143624,0.331813,0.518603,0.143131,-0.842950,0.000000,0.000000,0.000000,-1,0.007667,-0.004695,-0.001274,-0.002016,-0.001682,-0.004065
"2018-06-06 19:10:18.209 +0000",1528312218.209109,0.552182,-0.143025,0.331856,0.519190,0.142538,-0.842689,0.000000,0.000000,0.000000,-1,0.004463,0.007349,0.004147,0.003286,-0.000463,-0.004403
"2018-06-06 19:10:18.300 +0000",1528312218.299771,0.552616,-0.142264,0.331541,0.519612,0.141785,-0.842556,0.000000,0.000000,0.000000,-1,0.002382,-0.004727,0.003041,0.003749,-0.003799,-0.000874
"2018-06-06 19:10:18.390 +0000",1528312218.390433,0.552803,-0.142239,0.331799,0.519772,0.141760,-0.842461,0.000000,0.000000,0.000000,-1,-0.009135,-0.009132,-0.001248,0.004245,-0.001287,-0.001853
"2018-06-06 19:10:18.481 +0000",1528312218.481095,0.552008,-0.142767,0.332053,0.519063,0.142282,-0.842810,0.000000,0.000000,0.000000,-1,0.001431,-0.022249,-0.007765,-0.003774,-0.003809,0.001441
"2018-06-06 19:10:18.572 +0000",1528312218.571757,0.551689,-0.143078,0.331771,0.518770,0.142591,-0.842938,0.000000,0.000000,0.000000,-1,-0.002859,0.009542,-0.000133,-0.010500,0.001162,-0.002704
"2018-06-06 19:10:18.662 +0000",1528312218.662419,0.551923,-0.142184,0.331191,0.519034,0.141705,-0.842925,0.000000,0.000000,0.000000,-1,0.019233,-0.000262,-0.003439,-0.001014,-0.000927,0.002883
"2018-06-06 19:10:18.753 +0000",1528312218.753081,0.551609,-0.140835,0.329909,0.518870,0.140370,-0.843250,0.000000,0.000000,0.000000,-1,0.013969,0.004110,-0.002338,0.004995,-0.005162,0.005726
"2018-06-06 19:10:18.844 +0000",1528312218.843743,0.551624,-0.140567,0.329755,0.518902,0.140105,-0.843274,0.000000,0.000000,0.000000,-1,-0.005004,-0.003665,0.007366,0.005009,-0.000914,0.003766
"2018-06-06 19:10:18.934 +0000",1528312218.934405,0.551762,-0.141182,0.331050,0.518974,0.140713,-0.843129,0.000000,0.000000,0.000000,-1,-0.015504,0.000701,0.006327,-0.000571,0.001453,-0.003185
"2018-06-06 19:10:19.025 +0000",1528312219.025067,0.552060,-0.142179,0.331906,0.519150,0.141701,-0.842855,0.000000,0.000000,0.000000,-1,-0.004916,-0.001420,-0.004460,-0.001313,-0.002006,-0.000239
"2018-06-06 19:10:19.116 +0000",1528312219.115729,0.552030,-0.142187,0.331096,0.519125,0.141709,-0.842869,0.000000,0.000000,0.000000,-1,0.011944,-0.005737,-0.010965,-0.006628,-0.000809,-0.001797
"2018-06-06 19:10:19.206 +0000",1528312219.206391,0.551754,-0.141596,0.330144,0.518936,0.141123,-0.843083,0.000000,0.000000,0.000000,-1,0.007655,-0.001403,-0.000186,0.001724,-0.000193,0.002522
"2018-06-06 19:10:19.297 +0000",1528312219.297053,0.552278,-0.141800,0.330949,0.519362,0.141325,-0.842787,0.000000,0.000000,0.000000,-1,-0.014472,0.002890,0.008482,0.007692,-0.004439,0.003584
"2018-06-06 19:10:19.388 +0000",1528312219.387715,0.552393,-0.142838,0.332109,0.519382,0.142353,-0.842602,0.000000,0.000000,0.000000,-1,-0.004939,-0.002531,-0.001236,-0.004260,0.002835,-0.001117
"2018-06-06 19:10:19.478 +0000",1528312219.478377,0.551761,-0.142464,0.331731,0.518878,0.141983,-0.842975,0.000000,0.000000,0.000000,-1,0.016086,-0.004659,-0.003442,-0.007479,0.001236,-0.001141
"2018-06-06 19:10:19.569 +0000",1528312219.569039,0.551576,-0.141297,0.330657,0.518807,0.140827,-0.843212,0.000000,0.000000,0.000000,-1,0.017111,0.004117,-0.001267,0.002723,-0.000126,0.003292
"2018-06-06 19:10:19.660 +0000",1528312219.659701,0.551718,-0.140753,0.330075,0.518967,0.140288,-0.843203,0.000000,0.000000,0.000000,-1,0.005544,0.009569,-0.000149,0.006515,-0.001235,0.003024
"2018-06-06 19:10:19.750 +0000",1528312219.750363,0.551579,-0.140859,0.330070,0.518843,0.140394,-0.843263,0.000000,0.000000,0.000000,-1,-0.001786,-0.004718,-0.001250,0.007235,-0.001279,0.002610
"2018-06-06 19:10:19.841 +0000",1528312219.841024,0.550901,-0.141371,0.330359,0.518233,0.140900,-0.843553,0.000000,0.000000,0.000000,-1,-0.010255,0.004008,0.006323,-0.006972,0.000121,-0.001372
"2018-06-06 19:10:19.932 +0000",1528312219.931686,0.552281,-0.142077,0.331194,0.519344,0.141599,-0.842752,0.000000,0.000000,0.000000,-1,-0.002865,0.016131,-0.000112,-0.002682,0.001604,-0.002570
"2018-06-06 19:10:20.022 +0000",1528312220.022348,0.552383,-0.141652,0.330497,0.519461,0.141179,-0.842750,0.000000,0.000000,0.000000,-1,0.017152,-0.012337,-0.004543,0.004876,0.001125,0.001549
"2018-06-06 19:10:20.113 +0000",1528312220.113010,0.550597,-0.140861,0.328962,0.518014,0.140396,-0.843771,0.000000,0.000000,0.000000,-1,0.007698,-0.011266,-0.004519,0.000632,-0.006515,0.003592
"2018-06-06 19:10:20.204 +0000",1528312220.203672,0.550881,-0.141583,0.329262,0.518200,0.141110,-0.843538,0.000000,0.000000,0.000000,-1,-0.019696,0.008381,0.004206,0.004551,-0.000714,0.005052
"2018-06-06 19:10:20.294 +0000",1528312220.294334,0.551227,-0.142329,0.330687,0.518437,0.141849,-0.843269,0.000000,0.000000,0.000000,-1,-0.014476,-0.001506,0.009544,-0.001286,0.002896,-0.002007
"2018-06-06 19:10:20.385 +0000",1528312220.384996,0.551958,-0.142541,0.331733,0.519037,0.142059,-0.842864,0.000000,0.000000,0.000000,-1,0.003419,0.000762,0.004131,0.000601,0.002000,-0.004472
"2018-06-06 19:10:20.476 +0000",1528312220.475658,0.551265,-0.141838,0.330761,0.518505,0.141363,-0.843308,0.000000,0.000000,0.000000,-1,0.008806,-0.011231,-0.012051,0.002064,-0.003896,0.000169
"2018-06-06 19:10:20.566 +0000",1528312220.566320,0.551845,-0.142184,0.330906,0.518969,0.141706,-0.842965,0.000000,0.000000,0.000000,-1,-0.014481,0.011671,0.008507,-0.001025,0.000613,0.002130
"2018-06-06 19:10:20.657 +0000",1528312220.656982,0.552263,-0.142940,0.331896,0.519265,0.142454,-0.842657,0.000000,0.000000,0.000000,-1,-0.007069,0.001839,0.002007,0.005057,-0.000761,-0.000773
"2018-06-06 19:10:20.748 +0000",1528312220.747644,0.552086,-0.142999,0.331737,0.519111,0.142512,-0.842742,0.000000,0.000000,0.000000,-1,0.004520,-0.000306,-0.002328,-0.003639,-0.002147,0.000167
"2018-06-06 19:10:20.838 +0000",1528312220.838306,0.552892,-0.142942,0.331969,0.519795,0.142455,-0.842330,0.000000,0.000000,0.000000,-1,-0.002906,0.016109,0.005267,0.004955,0.000748,0.001189
"2018-06-06 19:10:20.929 +0000",1528312220.928968,0.553339,-0.142782,0.332517,0.520183,0.142297,-0.842117,0.000000,0.000000,0.000000,-1,0.006578,-0.008011,0.004099,0.004170,-0.001230,0.001343
"2018-06-06 19:10:21.020 +0000",1528312221.019630,0.552537,-0.142170,0.332083,0.519553,0.141691,-0.842608,0.000000,0.000000,0.000000,-1,0.007665,-0.002497,-0.001265,-0.002799,0.000505,-0.000089
"2018-06-06 19:10:21.110 +0000",1528312221.110292,0.552639,-0.141619,0.331930,0.519680,0.141146,-0.842621,0.000000,0.000000,0.000000,-1,0.002355,0.006244,0.005226,0.000797,0.002088,-0.002273
"2018-06-06 19:10:21.201 +0000",1528312221.200954,0.552800,-0.141125,0.331821,0.519853,0.140657,-0.842596,0.000000,0.000000,0.000000,-1,0.006616,-0.004695,-0.001269,0.002364,-0.002840,0.001044
"2018-06-06 19:10:21.292 +0000",1528312221.291616,0.552559,-0.141133,0.331542,0.519649,0.140665,-0.842721,0.000000,0.000000,0.000000,-1,-0.001747,-0.002500,-0.006622,0.000386,-0.003839,0.001092
"2018-06-06 19:10:21.382 +0000",1528312221.382278,0.552595,-0.141518,0.331536,0.519651,0.141047,-0.842656,0.000000,0.000000,0.000000,-1,-0.001775,-0.008007,-0.002335,-0.001935,-0.000772,-0.000255
"2018-06-06 19:10:21.473 +0000",1528312221.472939,0.552432,-0.141613,0.331793,0.519506,0.141140,-0.842730,0.000000,0.000000,0.000000,-1,-0.000775,0.001853,0.003069,-0.006276,-0.001049,-0.005110
"2018-06-06 19:10:21.564 +0000",1528312221.563601,0.553021,-0.141326,0.331633,0.520024,0.140856,-0.842458,0.000000,0.000000,0.000000,-1,0.004503,0.008472,-0.001226,0.000179,-0.000902,0.000554
"2018-06-06 19:10:21.654 +0000",1528312221.654264,0.554121,-0.141420,0.331776,0.520943,0.140949,-0.841874,0.000000,0.000000,0.000000,-1,-0.009194,0.018296,0.003136,0.005592,-0.002460,0.003801
"2018-06-06 19:10:21.745 +0000",1528312221.744926,0.554107,-0.142189,0.332579,0.520874,0.141710,-0.841789,0.000000,0.000000,0.000000,-1,-0.011249,-0.012438,0.000900,0.003433,-0.002077,0.005546
"2018-06-06 19:10:21.836 +0000",1528312221.835588,0.553400,-0.142540,0.333138,0.520253,0.142058,-0.842115,0.000000,0.000000,0.000000,-1,-0.001805,-0.011316,0.001960,-0.011387,0.001573,-0.005862
"2018-06-06 19:10:21.926 +0000",1528312221.926250,0.552826,-0.142137,0.332995,0.519799,0.141659,-0.842462,0.000000,0.000000,0.000000,-1,0.005565,-0.003598,-0.001262,-0.001656,-0.002865,-0.000739
"2018-06-06 19:10:22.017 +0000",1528312222.016912,0.553162,-0.141948,0.332806,0.520096,0.141472,-0.842310,0.000000,0.000000,0.000000,-1,-0.001790,0.007364,-0.002288,-0.002854,-0.005546,0.001077
"2018-06-06 19:10:22.108 +0000",1528312222.107574,0.554381,-0.142148,0.333017,0.521108,0.141669,-0.841651,0.000000,0.000000,0.000000,-1,-0.002878,0.012831,0.002033,-0.000158,0.000451,0.001014
"2018-06-06 19:10:22.198 +0000",1528312222.198236,0.554631,-0.141908,0.333005,0.521336,0.141433,-0.841549,0.000000,0.000000,0.000000,-1,0.002406,-0.003611,-0.000179,-0.000264,-0.000960,-0.001209
"2018-06-06 19:10:22.289 +0000",1528312222.288898,0.554506,-0.141661,0.332779,0.521249,0.141188,-0.841644,0.000000,0.000000,0.000000,-1,0.002422,-0.003602,-0.002330,0.002722,-0.002394,-0.001297
"2018-06-06 19:10:22.380 +0000",1528312222.379560,0.553650,-0.141596,0.332046,0.520533,0.141123,-0.842098,0.000000,0.000000,0.000000,-1,0.009866,-0.021105,-0.012079,0.000875,-0.004572,0.001125
"2018-06-06 19:10:22.470 +0000",1528312222.470221,0.553907,-0.141723,0.332356,0.520741,0.141250,-0.841949,0.000000,0.000000,0.000000,-1,-0.012402,0.017160,0.010672,-0.002140,-0.004470,-0.004761
"2018-06-06 19:10:22.561 +0000",1528312222.560883,0.555220,-0.142394,0.333341,0.521795,0.141913,-0.841184,0.000000,0.000000,0.000000,-1,-0.000733,0.000780,-0.002310,0.004999,-0.002661,0.002119
"2018-06-06 19:10:22.652 +0000",1528312222.651544,0.554321,-0.142086,0.332115,0.521062,0.141608,-0.841690,0.000000,0.000000,0.000000,-1,0.015121,-0.015597,-0.013150,-0.001668,0.000131,-0.001099
"2018-06-06 19:10:22.742 +0000",1528312222.742206,0.553186,-0.141833,0.331075,0.520125,0.141358,-0.842311,0.000000,0.000000,0.000000,-1,0.000290,-0.004724,0.001974,-0.006789,-0.000382,0.001826
"2018-06-06 19:10:22.833 +0000",1528312222.832868,0.552745,-0.142089,0.331607,0.519734,0.141611,-0.842510,0.000000,0.000000,0.000000,-1,-0.005931,-0.003600,-0.008767,-0.002355,0.005956,0.022319
"2018-06-06 19:10:22.924 +0000",1528312222.923530,0.551752,-0.142753,0.332515,0.518848,0.142268,-0.842945,0.000000,0.000000,0.000000,-1,0.001370,-0.018985,-0.000223,-0.002460,0.004933,-0.007382
"2018-06-06 19:10:23.014 +0000",1528312223.014192,0.549707,-0.142519,0.331622,0.517140,0.142037,-0.844033,0.000000,0.000000,0.000000,-1,0.007729,-0.017838,-0.007764,-0.010076,0.006279,-0.001014
"2018-06-06 19:10:23.105 +0000",1528312223.104853,0.549620,-0.142539,0.331206,0.517065,0.142057,-0.844075,0.000000,0.000000,0.000000,-1,-0.007079,0.011720,0.002037,0.000147,0.001238,0.004781
"2018-06-06 19:10:23.196 +0000",1528312223.195515,0.550323,-0.142598,0.331491,0.517655,0.142116,-0.843704,0.000000,0.000000,0.000000,-1,0.002384,0.001866,0.001987,-0.002808,0.000997,-0.003494
"2018-06-06 19:10:23.286 +0000",1528312223.286177,0.550632,-0.142445,0.331669,0.517927,0.141964,-0.843563,0.000000,0.000000,0.000000,-1,-0.001829,0.005144,0.003082,0.000460,0.001621,-0.002888
"2018-06-06 19:10:23.377 +0000",1528312223.376839,0.550895,-0.142277,0.331606,0.518161,0.141797,-0.843447,0.000000,0.000000,0.000000,-1,0.004504,0.007375,-0.001229,-0.003330,-0.002316,0.000475
"2018-06-06 19:10:23.468 +0000",1528312223.467501,0.551234,-0.141871,0.331341,0.518477,0.141395,-0.843320,0.000000,0.000000,0.000000,-1,0.002380,0.006258,0.002000,0.001253,-0.001594,-0.000292
"2018-06-06 19:10:23.558 +0000",1528312223.558163,0.551414,-0.141731,0.331314,0.518639,0.141257,-0.843244,0.000000,0.000000,0.000000,-1,-0.001808,0.000762,0.000917,0.001243,-0.001211,0.001172
