timestamp,timeIntervalSince1970,attitude.roll,attitude.pitch,attitude.yaw,gravity.x,gravity.y,gravity.z,magneticField.x,magneticField.y,magneticField.z,magneticField.accuracy,rotationRate.x,rotationRate.y,rotationRate.z,userAcceleration.x,userAcceleration.y,userAcceleration.z
"2018-06-06 19:20:48.249 +0000",1528312848.248966,-0.045497,0.768152,0.031623,-0.032710,-0.694807,-0.718451,0.000000,0.000000,0.000000,-1,-1.287201,0.323166,-0.046317,0.070521,0.076888,0.092597
"2018-06-06 19:20:48.340 +0000",1528312848.339627,-0.063462,0.583540,0.091491,-0.052925,-0.550982,-0.832837,0.000000,0.000000,0.000000,-1,-2.517588,-0.009714,1.557167,0.206153,0.267748,0.075589
"2018-06-06 19:20:48.430 +0000",1528312848.430290,-0.059634,0.343635,0.180539,-0.056114,-0.336912,-0.939862,0.000000,0.000000,0.000000,-1,-1.826003,1.162577,-0.836468,-0.238854,-0.096071,-0.493975
"2018-06-06 19:20:48.521 +0000",1528312848.520952,0.173875,0.263003,0.207176,0.167051,-0.259981,-0.951054,0.000000,0.000000,0.000000,-1,-1.275283,1.184448,0.073406,-0.293364,0.042192,0.466648
"2018-06-06 19:20:48.612 +0000",1528312848.611614,0.246601,0.129107,0.225203,0.242077,-0.128749,-0.961677,0.000000,0.000000,0.000000,-1,-1.449150,0.439557,0.101755,0.008472,-0.016820,0.012641
"2018-06-06 19:20:48.702 +0000",1528312848.702277,0.275094,0.054381,0.310388,0.271236,-0.054354,-0.960977,0.000000,0.000000,0.000000,-1,-1.361812,-0.253977,1.671055,0.245824,0.049975,0.241845
"2018-06-06 19:20:48.793 +0000",1528312848.792939,0.292181,-0.046737,0.463638,0.287727,0.046720,-0.956572,0.000000,0.000000,0.000000,-1,-1.279043,0.919787,1.142912,0.054375,-0.147641,0.240782
"2018-06-06 19:20:48.884 +0000",1528312848.883601,0.371025,-0.100229,0.618154,0.360751,0.100061,-0.927279,0.000000,0.000000,0.000000,-1,-0.610319,0.803796,2.021996,0.100415,-0.117975,0.090014
"2018-06-06 19:20:48.974 +0000",1528312848.974264,0.478518,-0.064817,0.734179,0.459498,0.064771,-0.885814,0.000000,0.000000,0.000000,-1,0.260588,0.075491,1.404765,0.115744,0.202319,-0.091160
"2018-06-06 19:20:49.065 +0000",1528312849.064926,0.527359,-0.054745,0.865639,0.502499,0.054717,-0.862844,0.000000,0.000000,0.000000,-1,-0.387532,1.105042,1.012332,0.041370,-0.141540,-0.016367
"2018-06-06 19:20:49.156 +0000",1528312849.155588,0.626536,-0.026202,0.910130,0.586141,0.026199,-0.809785,0.000000,0.000000,0.000000,-1,0.121951,0.367437,0.273257,-0.249944,0.127533,-0.162962
"2018-06-06 19:20:49.246 +0000",1528312849.246251,0.632744,-0.034995,0.809518,0.590997,0.034988,-0.805914,0.000000,0.000000,0.000000,-1,0.644282,0.642405,-2.126903,-0.060938,0.083435,0.109442
"2018-06-06 19:20:49.337 +0000",1528312849.336913,0.605305,-0.048991,0.677768,0.568330,0.048971,-0.821342,0.000000,0.000000,0.000000,-1,0.260353,-0.031341,-0.877008,0.000136,0.120188,0.105003
"2018-06-06 19:20:49.428 +0000",1528312849.427574,0.644634,-0.059786,0.647610,0.599832,0.059750,-0.797892,0.000000,0.000000,0.000000,-1,-0.301457,0.064245,-0.220376,-0.231149,0.037494,0.125284
"2018-06-06 19:20:49.518 +0000",1528312849.518238,0.636582,-0.149419,0.706560,0.587827,0.148864,-0.795172,0.000000,0.000000,0.000000,-1,-1.362033,0.172944,-0.404793,-0.029752,-0.099822,0.153098
"2018-06-06 19:20:49.609 +0000",1528312849.608900,0.715692,-0.209352,0.627794,0.641813,0.207826,-0.738162,0.000000,0.000000,0.000000,-1,1.079004,1.609850,-0.863353,0.007235,-0.274354,0.017902
"2018-06-06 19:20:49.700 +0000",1528312849.699562,0.763570,-0.209340,0.594098,0.676408,0.207815,-0.706601,0.000000,0.000000,0.000000,-1,0.051034,0.140208,-0.038103,0.012496,-0.017873,-0.022189
"2018-06-06 19:20:49.790 +0000",1528312849.790225,0.767186,-0.216923,0.604245,0.677845,0.215226,-0.702996,0.000000,0.000000,0.000000,-1,-0.198019,-0.264741,0.027980,0.001064,-0.109956,0.008370
"2018-06-06 19:20:49.881 +0000",1528312849.880887,0.754454,-0.207118,0.609045,0.670253,0.205640,-0.713073,0.000000,0.000000,0.000000,-1,-0.137883,-0.148529,-0.157907,-0.085383,-0.132795,-0.049684
"2018-06-06 19:20:49.972 +0000",1528312849.971550,0.798283,-0.246253,0.598979,0.694554,0.243771,-0.676882,0.000000,0.000000,0.000000,-1,0.589749,1.877024,-0.238657,0.131389,0.241153,-0.113065
"2018-06-06 19:20:50.062 +0000",1528312850.062212,0.897503,-0.164123,0.526752,0.771266,0.163387,-0.615184,0.000000,0.000000,0.000000,-1,0.638986,0.364056,0.375325,-0.037486,-0.022228,-0.021672
"2018-06-06 19:20:50.153 +0000",1528312850.152874,0.894712,-0.151761,0.533869,0.771063,0.151179,-0.618551,0.000000,0.000000,0.000000,-1,-0.353377,-0.191537,0.007034,-0.004095,-0.017344,0.025030
"2018-06-06 19:20:50.244 +0000",1528312850.243536,0.779288,-0.262265,0.549344,0.678742,0.259269,-0.687087,0.000000,0.000000,0.000000,-1,-3.529061,-5.340640,-3.803078,-0.853165,-0.703315,-0.513826
"2018-06-06 19:20:50.334 +0000",1528312850.334199,0.678797,-0.315778,0.435855,0.596812,0.310556,-0.739844,0.000000,0.000000,0.000000,-1,0.405679,-1.238332,-0.914199,-0.210689,0.382376,0.129218
"2018-06-06 19:20:50.425 +0000",1528312850.424861,0.553330,-0.336327,0.288264,0.496080,0.330022,-0.803112,0.000000,0.000000,0.000000,-1,0.866431,-1.318038,-3.594918,-0.490236,-0.144109,-0.144046
"2018-06-06 19:20:50.516 +0000",1528312850.515524,0.472945,-0.402507,0.015754,0.419106,0.391726,-0.819085,0.000000,0.000000,0.000000,-1,1.391733,0.418394,-1.091271,0.062065,0.213605,-0.166999
"2018-06-06 19:20:50.606 +0000",1528312850.606186,0.471866,-0.342746,0.002218,0.428111,0.336075,-0.838913,0.000000,0.000000,0.000000,-1,0.235507,0.089841,0.839053,-0.094340,0.055603,-0.027527
"2018-06-06 19:20:50.697 +0000",1528312850.696848,0.483726,-0.313518,0.015024,0.442410,0.308407,-0.842115,0.000000,0.000000,0.000000,-1,0.030124,0.185758,0.080397,-0.036786,0.026768,0.001249
"2018-06-06 19:20:50.788 +0000",1528312850.787511,0.503147,-0.299702,0.023580,0.460692,0.295235,-0.837018,0.000000,0.000000,0.000000,-1,0.035098,0.183423,0.116950,-0.002653,0.001304,0.007520
"2018-06-06 19:20:50.878 +0000",1528312850.878173,0.511447,-0.296379,0.031012,0.468100,0.292059,-0.834016,0.000000,0.000000,0.000000,-1,0.049609,0.144916,0.146923,-0.019446,-0.008505,-0.013625
"2018-06-06 19:20:50.969 +0000",1528312850.968836,0.522893,-0.291535,0.036887,0.478316,0.287422,-0.829820,0.000000,0.000000,0.000000,-1,0.028080,0.093522,0.084436,0.023621,0.003914,0.001603
"2018-06-06 19:20:51.059 +0000",1528312851.059498,0.533028,-0.286439,0.039397,0.487440,0.282538,-0.826180,0.000000,0.000000,0.000000,-1,0.052706,0.070781,0.026228,0.009280,-0.004828,-0.005698
"2018-06-06 19:20:51.150 +0000",1528312851.150160,0.537825,-0.278365,0.036399,0.492550,0.274784,-0.825765,0.000000,0.000000,0.000000,-1,0.125288,0.045780,0.015233,-0.018643,-0.004169,0.004064
"2018-06-06 19:20:51.241 +0000",1528312851.240823,0.537766,-0.266313,0.033444,0.494162,0.263176,-0.828578,0.000000,0.000000,0.000000,-1,0.083745,0.055233,0.089575,0.019983,0.019462,0.007091
"2018-06-06 19:20:51.331 +0000",1528312851.331485,0.535395,-0.259594,0.043020,0.493087,0.256688,-0.831249,0.000000,0.000000,0.000000,-1,-0.017560,-0.106762,0.171084,0.013978,-0.009999,0.012768
"2018-06-06 19:20:51.422 +0000",1528312851.422147,0.531137,-0.259653,0.059441,0.489535,0.256746,-0.833328,0.000000,0.000000,0.000000,-1,-0.097083,-0.045311,0.124117,0.048078,-0.027025,-0.014297
"2018-06-06 19:20:51.513 +0000",1528312851.512810,0.532843,-0.257131,0.072513,0.491284,0.254307,-0.833047,0.000000,0.000000,0.000000,-1,-0.077057,-0.039726,0.114407,0.029850,-0.033543,0.002786
"2018-06-06 19:20:51.603 +0000",1528312851.603472,0.529822,-0.258944,0.086370,0.488531,0.256060,-0.834128,0.000000,0.000000,0.000000,-1,-0.156893,-0.115739,0.125125,0.024729,-0.027926,0.000602
"2018-06-06 19:20:51.694 +0000",1528312851.694134,0.524637,-0.265348,0.105779,0.483368,0.262245,-0.835214,0.000000,0.000000,0.000000,-1,-0.198903,-0.129034,0.126258,0.007736,-0.005913,0.013131
"2018-06-06 19:20:51.785 +0000",1528312851.784796,0.520367,-0.276658,0.124190,0.478291,0.273142,-0.834644,0.000000,0.000000,0.000000,-1,-0.201709,-0.126657,0.081094,-0.018819,0.006399,-0.012280
"2018-06-06 19:20:51.875 +0000",1528312851.875459,0.513531,-0.288387,0.135015,0.470969,0.284407,-0.835045,0.000000,0.000000,0.000000,-1,-0.140266,-0.086660,0.007926,-0.000037,0.003008,-0.012184
"2018-06-06 19:20:51.966 +0000",1528312851.966121,0.503085,-0.296694,0.136206,0.461065,0.292360,-0.837821,0.000000,0.000000,0.000000,-1,-0.015711,-0.088175,-0.071961,-0.019842,0.013624,-0.006647
"2018-06-06 19:20:52.057 +0000",1528312852.056783,0.488926,-0.301352,0.128393,0.448512,0.296812,-0.843053,0.000000,0.000000,0.000000,-1,0.006555,-0.133031,-0.093656,-0.041056,0.020464,0.015981
"2018-06-06 19:20:52.147 +0000",1528312852.147446,0.469630,-0.304260,0.118304,0.431769,0.299588,-0.850777,0.000000,0.000000,0.000000,-1,0.011758,-0.150614,-0.085111,-0.012000,0.022235,0.009560
"2018-06-06 19:20:52.238 +0000",1528312852.238108,0.452494,-0.306797,0.108356,0.416795,0.302006,-0.857364,0.000000,0.000000,0.000000,-1,0.042468,-0.102065,-0.123764,-0.009202,-0.029378,0.012348
"2018-06-06 19:20:52.329 +0000",1528312852.328771,0.448327,-0.312547,0.101261,0.412459,0.307483,-0.857514,0.000000,0.000000,0.000000,-1,-0.112749,0.073890,-0.038996,0.025240,0.031994,0.005540
"2018-06-06 19:20:52.419 +0000",1528312852.419433,0.449942,-0.326413,0.106265,0.411949,0.320647,-0.852925,0.000000,0.000000,0.000000,-1,-0.171608,-0.115210,-0.010369,0.019279,0.066056,-0.007014
"2018-06-06 19:20:52.510 +0000",1528312852.510096,0.446341,-0.341933,0.114122,0.406677,0.335309,-0.849812,0.000000,0.000000,0.000000,-1,-0.142301,-0.094316,0.000381,-0.026962,0.030841,0.006672
"2018-06-06 19:20:52.601 +0000",1528312852.600758,0.437253,-0.348374,0.116254,0.398015,0.341370,-0.851498,0.000000,0.000000,0.000000,-1,-0.014203,-0.124736,0.009680,-0.013265,0.019226,0.006131
"2018-06-06 19:20:52.691 +0000",1528312852.691420,0.424766,-0.350354,0.117099,0.387072,0.343230,-0.855784,0.000000,0.000000,0.000000,-1,-0.025703,-0.136821,0.004293,-0.015063,0.009782,-0.009450
"2018-06-06 19:20:52.782 +0000",1528312852.782082,0.417568,-0.352645,0.117958,0.380583,0.345381,-0.857827,0.000000,0.000000,0.000000,-1,-0.044628,-0.016067,-0.008220,-0.012037,-0.013823,-0.026038
"2018-06-06 19:20:52.873 +0000",1528312852.872745,0.416715,-0.360450,0.117183,0.378748,0.352695,-0.855660,0.000000,0.000000,0.000000,-1,-0.134258,-0.108195,-0.087880,0.070303,0.037640,-0.028709
"2018-06-06 19:20:52.963 +0000",1528312852.963407,0.390920,-0.381201,0.121796,0.353687,0.372035,-0.858192,0.000000,0.000000,0.000000,-1,-0.231083,-0.564381,-0.006161,0.038265,0.164189,0.030677
"2018-06-06 19:20:53.054 +0000",1528312853.054069,0.334494,-0.393533,0.130817,0.303197,0.383453,-0.872373,0.000000,0.000000,0.000000,-1,-0.068393,-0.487679,0.135675,-0.107457,0.127029,0.040845
"2018-06-06 19:20:53.145 +0000",1528312853.144732,0.326188,-0.401090,0.114336,0.295003,0.390422,-0.872091,0.000000,0.000000,0.000000,-1,0.038165,0.366906,-0.441856,-0.079015,0.172673,0.178960
"2018-06-06 19:20:53.235 +0000",1528312853.235394,0.340369,-0.414593,0.065454,0.305552,0.402817,-0.862772,0.000000,0.000000,0.000000,-1,0.187096,0.232675,-0.534022,0.002340,0.073852,0.064279
"2018-06-06 19:20:53.326 +0000",1528312853.326056,0.299756,-0.394473,0.013107,0.272608,0.384322,-0.882032,0.000000,0.000000,0.000000,-1,0.584170,-0.214365,-0.211387,0.018255,-0.308150,-0.001269
"2018-06-06 19:20:53.417 +0000",1528312853.416718,0.333222,-0.346708,-0.026753,0.307626,0.339803,-0.888763,0.000000,0.000000,0.000000,-1,0.584657,0.979224,-0.285362,-0.001505,-0.131475,0.129592
"2018-06-06 19:20:53.507 +0000",1528312853.507380,0.382692,-0.309006,-0.060669,0.355732,0.304112,-0.883725,0.000000,0.000000,0.000000,-1,0.285979,0.739272,-0.069172,0.049404,-0.033925,-0.087283
"2018-06-06 19:20:53.598 +0000",1528312853.598042,0.434950,-0.309118,-0.065605,0.401393,0.304219,-0.863906,0.000000,0.000000,0.000000,-1,0.051187,0.263301,-0.073245,-0.109279,-0.002690,-0.198945
"2018-06-06 19:20:53.689 +0000",1528312853.688705,0.458891,-0.301777,-0.082150,0.422936,0.297217,-0.856029,0.000000,0.000000,0.000000,-1,0.257631,0.352058,-0.159512,-0.008050,0.000650,0.009929
"2018-06-06 19:20:53.779 +0000",1528312853.779367,0.479755,-0.287020,-0.108866,0.442680,0.283095,-0.850817,0.000000,0.000000,0.000000,-1,0.216652,0.282740,-0.148863,0.052727,-0.011840,0.023928
"2018-06-06 19:20:53.870 +0000",1528312853.870030,0.499028,-0.280219,-0.122692,0.459905,0.276566,-0.843799,0.000000,0.000000,0.000000,-1,0.081527,0.174355,-0.046683,0.029200,0.029999,-0.011059
"2018-06-06 19:20:53.961 +0000",1528312853.960692,0.511580,-0.275757,-0.122779,0.471059,0.272276,-0.839028,0.000000,0.000000,0.000000,-1,0.049368,0.076159,0.049913,0.013850,0.007036,0.010475
"2018-06-06 19:20:54.051 +0000",1528312854.051355,0.515672,-0.269696,-0.121113,0.475294,0.266439,-0.838513,0.000000,0.000000,0.000000,-1,0.055691,0.028960,0.052989,0.020647,-0.036580,0.002057
"2018-06-06 19:20:54.142 +0000",1528312854.142017,0.524948,-0.267588,-0.115893,0.483332,0.264406,-0.834553,0.000000,0.000000,0.000000,-1,-0.060017,0.118608,0.064271,-0.046564,-0.037370,-0.007641
"2018-06-06 19:20:54.233 +0000",1528312854.232680,0.536931,-0.267599,-0.110562,0.493296,0.264417,-0.828699,0.000000,0.000000,0.000000,-1,-0.009433,0.141903,0.039480,0.003927,0.008563,-0.000952
"2018-06-06 19:20:54.323 +0000",1528312854.323343,0.544809,-0.266035,-0.106474,0.500023,0.262908,-0.825139,0.000000,0.000000,0.000000,-1,-0.006253,0.069437,0.044640,0.015953,0.004182,-0.004862
"2018-06-06 19:20:54.414 +0000",1528312854.414006,0.551701,-0.264561,-0.099936,0.505900,0.261485,-0.822003,0.000000,0.000000,0.000000,-1,-0.045362,0.025260,0.082249,0.029775,0.010091,0.003689
"2018-06-06 19:20:54.505 +0000",1528312854.504668,0.552192,-0.263968,-0.090831,0.506385,0.260913,-0.821886,0.000000,0.000000,0.000000,-1,-0.034712,-0.083366,0.076530,0.052789,0.009396,0.005907
"2018-06-06 19:20:54.595 +0000",1528312854.595331,0.544230,-0.263439,-0.082896,0.499897,0.260403,-0.826010,0.000000,0.000000,0.000000,-1,-0.041883,-0.160170,0.062340,-0.001529,-0.009197,0.003439
"2018-06-06 19:20:54.686 +0000",1528312854.685993,0.537226,-0.264586,-0.074979,0.493946,0.261509,-0.829234,0.000000,0.000000,0.000000,-1,-0.056738,-0.064738,0.070181,-0.050754,0.003627,-0.023321
"2018-06-06 19:20:54.777 +0000",1528312854.776656,0.536416,-0.265710,-0.066857,0.493123,0.262594,-0.829381,0.000000,0.000000,0.000000,-1,-0.040025,0.022026,0.071470,-0.054982,-0.005285,-0.019771
"2018-06-06 19:20:54.867 +0000",1528312854.867318,0.542050,-0.264502,-0.061321,0.497951,0.261428,-0.826860,0.000000,0.000000,0.000000,-1,-0.014726,0.082555,0.052227,0.010319,-0.007202,-0.004973
"2018-06-06 19:20:54.958 +0000",1528312854.957981,0.548882,-0.263552,-0.056213,0.503718,0.260512,-0.823650,0.000000,0.000000,0.000000,-1,-0.026191,0.033146,0.046731,0.034398,0.015932,0.015743
"2018-06-06 19:20:55.049 +0000",1528312855.048644,0.550132,-0.263356,-0.049449,0.504774,0.260323,-0.823063,0.000000,0.000000,0.000000,-1,-0.031684,-0.032901,0.086351,0.010180,0.007988,0.006779
"2018-06-06 19:20:55.139 +0000",1528312855.139306,0.548101,-0.261132,-0.041380,0.503401,0.258174,-0.824579,0.000000,0.000000,0.000000,-1,-0.022382,-0.039547,0.106747,-0.006987,-0.024745,-0.013098
"2018-06-06 19:20:55.230 +0000",1528312855.229969,0.551372,-0.259719,-0.026450,0.506287,0.256809,-0.823237,0.000000,0.000000,0.000000,-1,-0.115235,0.003895,0.156564,-0.008317,-0.027775,-0.006780
"2018-06-06 19:20:55.321 +0000",1528312855.320630,0.557270,-0.262343,-0.007480,0.510775,0.259344,-0.819663,0.000000,0.000000,0.000000,-1,-0.144577,0.010440,0.146970,-0.000445,0.005563,0.006949
"2018-06-06 19:20:55.411 +0000",1528312855.411293,0.560302,-0.265208,0.008130,0.512861,0.262110,-0.817478,0.000000,0.000000,0.000000,-1,-0.074755,-0.026436,0.086467,-0.008741,0.018957,-0.005505
"2018-06-06 19:20:55.502 +0000",1528312855.501955,0.559860,-0.266247,0.013425,0.512355,0.263112,-0.817473,0.000000,0.000000,0.000000,-1,-0.007939,-0.017112,0.001365,-0.019786,0.015071,-0.002306
"2018-06-06 19:20:55.593 +0000",1528312855.592618,0.557838,-0.266217,0.009444,0.510705,0.263084,-0.818514,0.000000,0.000000,0.000000,-1,0.050262,0.006351,-0.057861,-0.019311,0.004601,-0.011961
"2018-06-06 19:20:55.683 +0000",1528312855.683280,0.557167,-0.266238,0.000936,0.510153,0.263103,-0.818852,0.000000,0.000000,0.000000,-1,0.052549,0.027327,-0.084696,0.001902,0.000004,0.001362
"2018-06-06 19:20:55.774 +0000",1528312855.773943,0.555490,-0.266796,-0.009407,0.508701,0.263642,-0.819582,0.000000,0.000000,0.000000,-1,0.053789,0.002172,-0.106285,-0.007053,0.006378,-0.008635
"2018-06-06 19:20:55.865 +0000",1528312855.864605,0.554528,-0.266711,-0.022790,0.507924,0.263560,-0.820089,0.000000,0.000000,0.000000,-1,0.088651,0.067182,-0.140596,-0.027516,0.014180,-0.005792
"2018-06-06 19:20:55.955 +0000",1528312855.955268,0.556198,-0.264957,-0.042955,0.509537,0.261868,-0.819631,0.000000,0.000000,0.000000,-1,0.160429,0.068673,-0.187009,0.004166,0.004383,0.001012
"2018-06-06 19:20:56.046 +0000",1528312856.045930,0.555223,-0.262356,-0.066028,0.509095,0.259357,-0.820703,0.000000,0.000000,0.000000,-1,0.141528,0.046656,-0.184879,0.017929,-0.006015,0.007395
"2018-06-06 19:20:56.137 +0000",1528312856.136592,0.554654,-0.261048,-0.083539,0.508806,0.258093,-0.821281,0.000000,0.000000,0.000000,-1,0.085383,0.035256,-0.121320,0.006301,-0.015951,0.000236
"2018-06-06 19:20:56.227 +0000",1528312856.227255,0.555386,-0.259394,-0.093269,0.509631,0.256495,-0.821270,0.000000,0.000000,0.000000,-1,0.049113,0.031559,-0.048101,0.007352,-0.021052,0.001980
"2018-06-06 19:20:56.318 +0000",1528312856.317918,0.557203,-0.257556,-0.095118,0.511371,0.254718,-0.820741,0.000000,0.000000,0.000000,-1,0.002416,0.016888,0.016502,0.012036,-0.013415,0.003023
"2018-06-06 19:20:56.409 +0000",1528312856.408581,0.558408,-0.257204,-0.091714,0.512407,0.254378,-0.820200,0.000000,0.000000,0.000000,-1,-0.025052,-0.007439,0.040158,0.009337,-0.006605,0.002985
"2018-06-06 19:20:56.499 +0000",1528312856.499243,0.558579,-0.257581,-0.087224,0.512497,0.254742,-0.820031,0.000000,0.000000,0.000000,-1,-0.028156,-0.012914,0.034771,-0.001938,-0.000088,0.000558
"2018-06-06 19:20:56.590 +0000",1528312856.589906,0.557967,-0.257835,-0.083865,0.511960,0.254988,-0.820290,0.000000,0.000000,0.000000,-1,-0.014424,-0.016128,0.025050,-0.002683,0.000566,-0.001365
"2018-06-06 19:20:56.681 +0000",1528312856.680568,0.556737,-0.258004,-0.082395,0.510928,0.255151,-0.820882,0.000000,0.000000,0.000000,-1,-0.010082,-0.016039,0.006754,-0.003359,0.000205,0.003027
"2018-06-06 19:20:56.771 +0000",1528312856.771230,0.555931,-0.257971,-0.081352,0.510270,0.255119,-0.821301,0.000000,0.000000,0.000000,-1,-0.000642,-0.011627,0.007821,-0.004197,-0.001106,-0.005038
"2018-06-06 19:20:56.862 +0000",1528312856.861893,0.555352,-0.257308,-0.080649,0.509884,0.254478,-0.821740,0.000000,0.000000,0.000000,-1,-0.000648,-0.005040,0.007840,-0.001400,-0.004066,0.000085
"2018-06-06 19:20:56.953 +0000",1528312856.952555,0.555451,-0.257183,-0.079341,0.509982,0.254357,-0.821717,0.000000,0.000000,0.000000,-1,-0.010184,0.003675,0.017568,-0.003955,-0.002770,0.000672
"2018-06-06 19:20:57.043 +0000",1528312857.043217,0.555703,-0.257049,-0.077248,0.510207,0.254228,-0.821617,0.000000,0.000000,0.000000,-1,-0.009115,-0.007295,0.016458,0.002580,0.000350,-0.002556
"2018-06-06 19:20:57.134 +0000",1528312857.133880,0.554446,-0.256776,-0.076177,0.509211,0.253964,-0.822316,0.000000,0.000000,0.000000,-1,-0.000590,-0.022582,0.002411,0.002813,-0.000317,-0.002192
"2018-06-06 19:20:57.225 +0000",1528312857.224542,0.552997,-0.256992,-0.076645,0.507990,0.254172,-0.823007,0.000000,0.000000,0.000000,-1,-0.000507,-0.013744,-0.009390,-0.009088,-0.001212,-0.004798
"2018-06-06 19:20:57.315 +0000",1528312857.315205,0.551782,-0.257232,-0.077892,0.506957,0.254405,-0.823572,0.000000,0.000000,0.000000,-1,0.007957,-0.008196,-0.017999,-0.003631,-0.003108,-0.002997
"2018-06-06 19:20:57.406 +0000",1528312857.405867,0.549806,-0.257830,-0.080368,0.505250,0.254983,-0.824442,0.000000,0.000000,0.000000,-1,0.007008,-0.019126,-0.029861,0.002990,-0.002587,0.002512
"2018-06-06 19:20:57.497 +0000",1528312857.496529,0.547912,-0.258705,-0.082154,0.503571,0.255829,-0.825206,0.000000,0.000000,0.000000,-1,-0.002560,-0.011527,-0.015833,-0.004471,-0.000564,-0.000019
"2018-06-06 19:20:57.587 +0000",1528312857.587191,0.546903,-0.259106,-0.082806,0.502684,0.256217,-0.825627,0.000000,0.000000,0.000000,-1,0.002553,-0.004999,0.001384,0.003007,-0.002005,-0.003551
"2018-06-06 19:20:57.678 +0000",1528312857.677854,0.546491,-0.258684,-0.082194,0.502401,0.255808,-0.825926,0.000000,0.000000,0.000000,-1,-0.001735,-0.009451,0.013213,0.008342,0.002645,0.003096
"2018-06-06 19:20:57.769 +0000",1528312857.768516,0.545941,-0.257832,-0.081396,0.502059,0.254985,-0.826388,0.000000,0.000000,0.000000,-1,0.005624,-0.007231,0.012127,-0.004241,-0.003230,-0.002255
"2018-06-06 19:20:57.859 +0000",1528312857.859178,0.546485,-0.256986,-0.080648,0.502621,0.254167,-0.826299,0.000000,0.000000,0.000000,-1,0.004577,0.005949,0.010017,-0.008541,-0.005571,-0.002772
"2018-06-06 19:20:57.950 +0000",1528312857.949841,0.546913,-0.256525,-0.080336,0.503035,0.253721,-0.826184,0.000000,0.000000,0.000000,-1,-0.001656,0.002674,0.001416,0.004457,-0.000654,0.000195
"2018-06-06 19:20:58.041 +0000",1528312858.040503,0.546894,-0.256865,-0.080434,0.502974,0.254050,-0.826120,0.000000,0.000000,0.000000,-1,-0.006853,-0.002802,-0.005041,-0.002410,-0.003256,-0.000769
"2018-06-06 19:20:58.131 +0000",1528312858.131165,0.547167,-0.257186,-0.080525,0.503157,0.254360,-0.825913,0.000000,0.000000,0.000000,-1,0.001534,0.004901,-0.003963,-0.003462,-0.002956,-0.001510
"2018-06-06 19:20:58.222 +0000",1528312858.221827,0.547493,-0.257200,-0.080335,0.503425,0.254373,-0.825745,0.000000,0.000000,0.000000,-1,-0.006924,0.002651,0.003581,0.002587,-0.004007,0.001359
"2018-06-06 19:20:58.312 +0000",1528312858.312490,0.547864,-0.257691,-0.079549,0.503666,0.254849,-0.825452,0.000000,0.000000,0.000000,-1,-0.010073,0.000447,0.003581,0.000499,0.000156,-0.000766
"2018-06-06 19:20:58.403 +0000",1528312858.403152,0.547954,-0.257676,-0.078935,0.503743,0.254834,-0.825410,0.000000,0.000000,0.000000,-1,-0.002749,0.003747,0.006801,0.001613,0.001560,-0.003081
"2018-06-06 19:20:58.494 +0000",1528312858.493814,0.548290,-0.257865,-0.078477,0.503995,0.255016,-0.825199,0.000000,0.000000,0.000000,-1,-0.002665,0.002695,-0.003959,-0.002164,-0.003948,0.000004
"2018-06-06 19:20:58.584 +0000",1528312858.584476,0.548842,-0.257936,-0.078312,0.504440,0.255086,-0.824906,0.000000,0.000000,0.000000,-1,-0.001669,0.008159,0.002509,-0.000885,-0.001011,-0.001663
"2018-06-06 19:20:58.675 +0000",1528312858.675138,0.549044,-0.257746,-0.078219,0.504633,0.254902,-0.824845,0.000000,0.000000,0.000000,-1,0.003608,-0.001697,0.000317,0.003866,-0.002232,0.000062
"2018-06-06 19:20:58.766 +0000",1528312858.765801,0.548872,-0.257730,-0.078466,0.504493,0.254886,-0.824936,0.000000,0.000000,0.000000,-1,0.000482,-0.001692,-0.002903,-0.001670,-0.001803,-0.000367
"2018-06-06 19:20:58.856 +0000",1528312858.856463,0.548879,-0.257859,-0.078759,0.504481,0.255011,-0.824904,0.000000,0.000000,0.000000,-1,0.003629,0.002708,-0.002897,-0.000880,-0.001211,-0.000398
"2018-06-06 19:20:58.947 +0000",1528312858.947125,0.549129,-0.257754,-0.079085,0.504701,0.254910,-0.824801,0.000000,0.000000,0.000000,-1,0.004668,0.005999,-0.001814,-0.000215,-0.003414,-0.000868
"2018-06-06 19:20:59.038 +0000",1528312859.037787,0.549690,-0.257764,-0.079171,0.505163,0.254919,-0.824515,0.000000,0.000000,0.000000,-1,-0.000612,0.009264,0.001434,-0.000005,-0.003241,-0.000024
"2018-06-06 19:20:59.128 +0000",1528312859.128449,0.550357,-0.257794,-0.078869,0.505709,0.254948,-0.824171,0.000000,0.000000,0.000000,-1,-0.001663,0.001573,0.002490,0.002760,-0.001149,-0.000002
"2018-06-06 19:20:59.219 +0000",1528312859.219112,0.550790,-0.257825,-0.078651,0.506061,0.254978,-0.823946,0.000000,0.000000,0.000000,-1,0.001536,0.003809,-0.003961,-0.001026,-0.002155,0.001176
"2018-06-06 19:20:59.310 +0000",1528312859.309774,0.551106,-0.257740,-0.078788,0.506333,0.254895,-0.823804,0.000000,0.000000,0.000000,-1,0.000442,0.005979,0.001426,-0.001572,-0.001172,-0.000170
"2018-06-06 19:20:59.400 +0000",1528312859.400436,0.551497,-0.257630,-0.078780,0.506670,0.254789,-0.823630,0.000000,0.000000,0.000000,-1,0.000453,0.002690,0.000341,0.001936,-0.003889,0.000449
"2018-06-06 19:20:59.491 +0000",1528312859.491098,0.551739,-0.257835,-0.078820,0.506842,0.254988,-0.823463,0.000000,0.000000,0.000000,-1,-0.001596,0.000516,-0.006114,0.000635,-0.002058,0.000923
"2018-06-06 19:20:59.582 +0000",1528312859.581760,0.551686,-0.258161,-0.078966,0.506755,0.255303,-0.823419,0.000000,0.000000,0.000000,-1,-0.001606,0.002707,-0.005032,0.000676,-0.001321,-0.000205
"2018-06-06 19:20:59.672 +0000",1528312859.672422,0.551674,-0.258413,-0.079097,0.506711,0.255546,-0.823370,0.000000,0.000000,0.000000,-1,-0.000569,-0.000593,-0.002893,-0.002377,-0.003883,0.000784
"2018-06-06 19:20:59.763 +0000",1528312859.763084,0.551955,-0.258654,-0.079381,0.506910,0.255779,-0.823176,0.000000,0.000000,0.000000,-1,0.000476,0.004899,-0.002879,0.000125,0.000752,0.001505
"2018-06-06 19:20:59.854 +0000",1528312859.853746,0.551625,-0.258540,-0.079684,0.506654,0.255669,-0.823367,0.000000,0.000000,0.000000,-1,0.004679,-0.004974,-0.001842,0.001906,0.000160,0.001575
"2018-06-06 19:20:59.944 +0000",1528312859.944408,0.551435,-0.258677,-0.079689,0.506479,0.255802,-0.823433,0.000000,0.000000,0.000000,-1,-0.010032,0.001572,-0.001789,-0.005045,-0.004520,-0.002937
"2018-06-06 19:21:00.035 +0000",1528312860.035071,0.551975,-0.258875,-0.079986,0.506897,0.255993,-0.823117,0.000000,0.000000,0.000000,-1,0.001531,0.008200,-0.003948,-0.000092,-0.002056,0.000546
"2018-06-06 19:21:00.126 +0000",1528312860.125733,0.552425,-0.258468,-0.080224,0.507322,0.255599,-0.822977,0.000000,0.000000,0.000000,-1,0.006741,0.000503,0.002472,0.002062,-0.000869,0.003992
"2018-06-06 19:21:00.216 +0000",1528312860.216395,0.552457,-0.258094,-0.080121,0.507399,0.255238,-0.823042,0.000000,0.000000,0.000000,-1,-0.000612,0.001583,0.002617,-0.000425,-0.003911,0.001601
"2018-06-06 19:21:00.307 +0000",1528312860.307056,0.552383,-0.257758,-0.080021,0.507383,0.254913,-0.823153,0.000000,0.000000,0.000000,-1,0.003592,-0.001699,0.002598,-0.000150,-0.000122,-0.000212
"2018-06-06 19:21:00.398 +0000",1528312860.397718,0.552673,-0.257297,-0.079544,0.507682,0.254468,-0.823106,0.000000,0.000000,0.000000,-1,0.003542,0.008159,0.008005,-0.008079,0.003299,-0.002974
"2018-06-06 19:21:00.488 +0000",1528312860.488380,0.552892,-0.256504,-0.080457,0.507969,0.253701,-0.823166,0.000000,0.000000,0.000000,-1,0.020540,0.005016,-0.016783,0.001324,-0.001992,0.002228
"2018-06-06 19:21:00.579 +0000",1528312860.579042,0.552740,-0.255925,-0.082835,0.507920,0.253140,-0.823368,0.000000,0.000000,0.000000,-1,0.014266,0.001719,-0.020005,0.005538,-0.002972,0.000508
"2018-06-06 19:21:00.670 +0000",1528312860.669704,0.551869,-0.255656,-0.084541,0.507239,0.252880,-0.823868,0.000000,0.000000,0.000000,-1,0.004740,-0.008232,-0.009256,0.006738,-0.003811,0.000413
"2018-06-06 19:21:00.760 +0000",1528312860.760366,0.551131,-0.255680,-0.085245,0.506627,0.252904,-0.824237,0.000000,0.000000,0.000000,-1,0.001562,-0.006059,-0.006015,0.001155,-0.002827,0.002094
"2018-06-06 19:21:00.851 +0000",1528312860.851028,0.550493,-0.255871,-0.085248,0.506076,0.253089,-0.824519,0.000000,0.000000,0.000000,-1,-0.004777,-0.001704,-0.001686,-0.002689,-0.005698,-0.001775
"2018-06-06 19:21:00.942 +0000",1528312860.941690,0.550544,-0.256149,-0.085285,0.506081,0.253357,-0.824433,0.000000,0.000000,0.000000,-1,-0.001628,0.000500,-0.001686,0.001243,0.000503,0.000886
"2018-06-06 19:21:01.032 +0000",1528312861.032352,0.550340,-0.256348,-0.085579,0.505887,0.253549,-0.824493,0.000000,0.000000,0.000000,-1,0.002619,-0.003856,-0.007087,0.003970,-0.001016,0.001144
"2018-06-06 19:21:01.123 +0000",1528312861.123014,0.549616,-0.256486,-0.086412,0.505271,0.253683,-0.824830,0.000000,0.000000,0.000000,-1,0.001594,-0.004943,-0.010315,0.000527,-0.002844,0.000733
"2018-06-06 19:21:01.214 +0000",1528312861.213676,0.549174,-0.256643,-0.087204,0.504886,0.253835,-0.825019,0.000000,0.000000,0.000000,-1,0.001544,-0.004972,-0.003863,-0.000156,-0.000935,-0.001657
"2018-06-06 19:21:01.304 +0000",1528312861.304338,0.549268,-0.256483,-0.087197,0.504985,0.253680,-0.825006,0.000000,0.000000,0.000000,-1,0.002533,-0.000610,0.003677,-0.000591,-0.001727,0.000863
"2018-06-06 19:21:01.395 +0000",1528312861.395000,0.549461,-0.256355,-0.086969,0.505161,0.253556,-0.824936,0.000000,0.000000,0.000000,-1,-0.002699,0.003780,0.000475,0.003246,-0.000672,0.001831
"2018-06-06 19:21:01.486 +0000",1528312861.485662,0.549482,-0.256286,-0.086689,0.505187,0.253490,-0.824941,0.000000,0.000000,0.000000,-1,0.001496,0.002689,0.001538,0.000108,-0.001369,0.001225
"2018-06-06 19:21:01.576 +0000",1528312861.576324,0.549579,-0.256035,-0.086632,0.505301,0.253247,-0.824946,0.000000,0.000000,0.000000,-1,0.004617,0.008173,0.004774,0.002206,-0.000882,0.001368
"2018-06-06 19:21:01.667 +0000",1528312861.666986,0.549736,-0.255989,-0.086328,0.505436,0.253203,-0.824876,0.000000,0.000000,0.000000,-1,-0.003770,0.008159,0.002642,-0.001896,-0.003722,-0.002638
"2018-06-06 19:21:01.758 +0000",1528312861.757648,0.550502,-0.256222,-0.085761,0.506037,0.253428,-0.824439,0.000000,0.000000,0.000000,-1,-0.004810,0.005965,0.001562,0.003026,-0.000208,0.000327
"2018-06-06 19:21:01.848 +0000",1528312861.848310,0.550859,-0.256158,-0.085377,0.506340,0.253365,-0.824272,0.000000,0.000000,0.000000,-1,-0.000626,-0.001721,0.004757,0.003975,-0.000573,0.001366
"2018-06-06 19:21:01.939 +0000",1528312861.938972,0.550804,-0.256060,-0.085050,0.506307,0.253271,-0.824321,0.000000,0.000000,0.000000,-1,-0.000602,-0.000610,0.001533,-0.000814,-0.001379,-0.000707
"2018-06-06 19:21:02.030 +0000",1528312862.029634,0.550909,-0.256154,-0.085110,0.506382,0.253362,-0.824247,0.000000,0.000000,0.000000,-1,0.000459,0.005989,-0.000601,-0.000202,-0.001363,-0.001055
"2018-06-06 19:21:02.120 +0000",1528312862.120296,0.551105,-0.256361,-0.085006,0.506516,0.253562,-0.824103,0.000000,0.000000,0.000000,-1,-0.010056,0.000461,0.001558,0.003326,-0.001166,0.000434
"2018-06-06 19:21:02.211 +0000",1528312862.210957,0.550544,-0.257337,-0.084757,0.505924,0.254506,-0.824176,0.000000,0.000000,0.000000,-1,-0.018400,-0.009415,-0.004905,0.006146,-0.007176,0.001377
"2018-06-06 19:21:02.302 +0000",1528312862.301620,0.550375,-0.258359,-0.085011,0.505648,0.255495,-0.824039,0.000000,0.000000,0.000000,-1,0.024680,0.009389,-0.009248,0.000791,-0.000566,0.009021
"2018-06-06 19:21:02.392 +0000",1528312862.392282,0.549672,-0.257674,-0.086035,0.505160,0.254832,-0.824544,0.000000,0.000000,0.000000,-1,0.019287,0.010395,0.009053,-0.006579,-0.002818,-0.002956
"2018-06-06 19:21:02.483 +0000",1528312862.482944,0.551633,-0.256500,-0.084768,0.506932,0.253697,-0.823806,0.000000,0.000000,0.000000,-1,-0.010308,0.022294,0.031744,-0.000783,0.001293,-0.002305
"2018-06-06 19:21:02.574 +0000",1528312862.573606,0.553951,-0.256997,-0.082416,0.508774,0.254177,-0.822521,0.000000,0.000000,0.000000,-1,-0.006960,0.005936,0.008024,0.007537,0.009723,-0.000858
"2018-06-06 19:21:02.664 +0000",1528312862.664268,0.553575,-0.256474,-0.083708,0.508535,0.253671,-0.822825,0.000000,0.000000,0.000000,-1,0.035294,-0.002602,-0.022215,-0.004781,0.012213,-0.002873
"2018-06-06 19:21:02.755 +0000",1528312862.754930,0.552303,-0.255217,-0.088517,0.507654,0.252456,-0.823742,0.000000,0.000000,0.000000,-1,0.049174,0.003051,-0.052349,-0.005396,0.007218,-0.003177
"2018-06-06 19:21:02.846 +0000",1528312862.845592,0.552250,-0.254031,-0.094798,0.507768,0.251307,-0.824024,0.000000,0.000000,0.000000,-1,0.043850,0.027160,-0.045813,-0.006547,-0.010691,-0.000683
"2018-06-06 19:21:02.936 +0000",1528312862.936255,0.554106,-0.253870,-0.099524,0.509317,0.251152,-0.823114,0.000000,0.000000,0.000000,-1,0.006948,0.034669,-0.028496,0.015692,-0.015709,0.003153
"2018-06-06 19:21:03.027 +0000",1528312863.026917,0.555097,-0.254783,-0.099214,0.510012,0.252036,-0.822414,0.000000,0.000000,0.000000,-1,-0.025948,-0.011735,0.020924,0.018522,-0.005637,0.008144
"2018-06-06 19:21:03.118 +0000",1528312863.117578,0.554037,-0.255705,-0.095070,0.509018,0.252928,-0.822756,0.000000,0.000000,0.000000,-1,-0.037611,-0.027204,0.037040,0.003250,-0.006880,0.000521
"2018-06-06 19:21:03.208 +0000",1528312863.208240,0.554207,-0.256858,-0.089453,0.509004,0.254043,-0.822421,0.000000,0.000000,0.000000,-1,-0.041887,-0.000897,0.043581,-0.008577,0.003357,-0.004987
"2018-06-06 19:21:03.299 +0000",1528312863.298901,0.555242,-0.257291,-0.085483,0.509797,0.254462,-0.821800,0.000000,0.000000,0.000000,-1,-0.003898,-0.003988,0.020898,-0.001664,0.008691,0.001381
"2018-06-06 19:21:03.390 +0000",1528312863.389563,0.554813,-0.256419,-0.085632,0.509561,0.253619,-0.822207,0.000000,0.000000,0.000000,-1,0.014160,0.000566,-0.006021,-0.001626,-0.000033,0.000765
"2018-06-06 19:21:03.480 +0000",1528312863.480225,0.555043,-0.255994,-0.086769,0.509807,0.253207,-0.822182,0.000000,0.000000,0.000000,-1,0.005773,0.010436,-0.009200,0.000600,-0.002413,-0.000832
"2018-06-06 19:21:03.571 +0000",1528312863.570887,0.555491,-0.255730,-0.087692,0.510210,0.252952,-0.822010,0.000000,0.000000,0.000000,-1,0.006783,0.000532,-0.002777,0.002134,-0.008933,0.003101
"2018-06-06 19:21:03.662 +0000",1528312863.661549,0.555887,-0.255858,-0.087296,0.510519,0.253075,-0.821780,0.000000,0.000000,0.000000,-1,-0.007981,0.001557,0.004789,0.005137,-0.003136,0.002536
"2018-06-06 19:21:03.752 +0000",1528312863.752210,0.556102,-0.256054,-0.086576,0.510669,0.253265,-0.821628,0.000000,0.000000,0.000000,-1,-0.002727,-0.000623,0.004771,-0.001071,0.000732,-0.001293
"2018-06-06 19:21:03.843 +0000",1528312863.842872,0.555772,-0.255697,-0.086467,0.510445,0.252920,-0.821874,0.000000,0.000000,0.000000,-1,0.007812,-0.002772,0.000438,0.000434,-0.000112,0.001302
"2018-06-06 19:21:03.934 +0000",1528312863.933534,0.555587,-0.255496,-0.086967,0.510320,0.252725,-0.822011,0.000000,0.000000,0.000000,-1,0.000513,0.001631,-0.007062,0.002284,-0.004785,0.002080
"2018-06-06 19:21:04.024 +0000",1528312864.024196,0.555534,-0.255687,-0.087287,0.510251,0.252910,-0.821997,0.000000,0.000000,0.000000,-1,-0.002688,0.001595,-0.000601,0.002643,-0.001369,-0.000009
"2018-06-06 19:21:04.115 +0000",1528312864.114858,0.555335,-0.255605,-0.087008,0.510099,0.252831,-0.822116,0.000000,0.000000,0.000000,-1,0.000421,-0.006108,0.005823,0.000644,-0.003884,0.001407
"2018-06-06 19:21:04.206 +0000",1528312864.205519,0.555312,-0.255544,-0.086367,0.510087,0.252772,-0.822142,0.000000,0.000000,0.000000,-1,-0.001694,0.000468,0.006923,0.001097,-0.000269,0.001890
"2018-06-06 19:21:04.296 +0000",1528312864.296181,0.555268,-0.255327,-0.085812,0.510080,0.252562,-0.822211,0.000000,0.000000,0.000000,-1,0.001483,-0.000609,0.003684,0.000677,-0.000273,-0.000513
"2018-06-06 19:21:04.387 +0000",1528312864.386843,0.555292,-0.255112,-0.085625,0.510129,0.252353,-0.822244,0.000000,0.000000,0.000000,-1,-0.002693,-0.001705,0.000463,0.002627,-0.003055,0.000330
"2018-06-06 19:21:04.478 +0000",1528312864.477505,0.555479,-0.255283,-0.085118,0.510260,0.252519,-0.822112,0.000000,0.000000,0.000000,-1,-0.003761,-0.000619,0.002620,0.001551,-0.003679,0.000960
"2018-06-06 19:21:04.568 +0000",1528312864.568167,0.555549,-0.255347,-0.084655,0.510309,0.252581,-0.822062,0.000000,0.000000,0.000000,-1,-0.002733,-0.002825,0.005838,0.001257,-0.000140,-0.000280
"2018-06-06 19:21:04.659 +0000",1528312864.658828,0.555282,-0.255294,-0.084224,0.510096,0.252530,-0.822210,0.000000,0.000000,0.000000,-1,-0.001660,-0.000613,0.002615,0.001455,-0.002164,0.000219
"2018-06-06 19:21:04.749 +0000",1528312864.749490,0.555094,-0.255292,-0.084300,0.509942,0.252528,-0.822307,0.000000,0.000000,0.000000,-1,0.002579,0.002714,-0.002763,-0.000603,-0.001338,-0.000157
"2018-06-06 19:21:04.840 +0000",1528312864.840152,0.555206,-0.255335,-0.084410,0.510028,0.252569,-0.822240,0.000000,0.000000,0.000000,-1,-0.000603,0.000492,0.001540,0.001660,-0.001394,0.000463
"2018-06-06 19:21:04.931 +0000",1528312864.930814,0.555275,-0.255191,-0.084323,0.510104,0.252430,-0.822236,0.000000,0.000000,0.000000,-1,0.002549,-0.000597,0.001530,0.001553,-0.001988,0.000336
"2018-06-06 19:21:05.021 +0000",1528312865.021476,0.555484,-0.255169,-0.084276,0.510279,0.252409,-0.822134,0.000000,0.000000,0.000000,-1,-0.000565,0.003808,-0.003828,0.000524,-0.001738,0.001242
"2018-06-06 19:21:05.112 +0000",1528312865.112137,0.555570,-0.255071,-0.084455,0.510363,0.252314,-0.822111,0.000000,0.000000,0.000000,-1,0.004683,-0.000573,-0.002778,0.001997,-0.002085,0.001143
"2018-06-06 19:21:05.203 +0000",1528312865.202799,0.555503,-0.255069,-0.084677,0.510307,0.252313,-0.822146,0.000000,0.000000,0.000000,-1,0.000484,-0.002780,-0.002774,0.001671,-0.002938,0.001406
"2018-06-06 19:21:05.293 +0000",1528312865.293461,0.555636,-0.255244,-0.084581,0.510394,0.252482,-0.822040,0.000000,0.000000,0.000000,-1,-0.000632,0.002705,-0.001677,0.003431,-0.000697,0.001850
"2018-06-06 19:21:05.384 +0000",1528312865.384123,0.555742,-0.255335,-0.084644,0.510469,0.252570,-0.821967,0.000000,0.000000,0.000000,-1,0.000413,-0.000590,-0.000613,0.000533,0.000009,-0.000345
"2018-06-06 19:21:05.475 +0000",1528312865.474783,0.555841,-0.255167,-0.084553,0.510573,0.252407,-0.821952,0.000000,0.000000,0.000000,-1,-0.000654,-0.000602,0.001541,0.001604,-0.003781,0.001151
"2018-06-06 19:21:05.565 +0000",1528312865.565445,0.555856,-0.255091,-0.084563,0.510595,0.252333,-0.821961,0.000000,0.000000,0.000000,-1,0.002528,0.001621,-0.002763,0.003153,-0.001997,0.000824
"2018-06-06 19:21:05.656 +0000",1528312865.656107,0.555833,-0.254971,-0.084454,0.510592,0.252218,-0.821998,0.000000,0.000000,0.000000,-1,-0.002777,-0.002817,0.004766,0.003019,-0.001913,0.000007
"2018-06-06 19:21:05.747 +0000",1528312865.746769,0.555988,-0.254545,-0.083130,0.510776,0.251805,-0.822010,0.000000,0.000000,0.000000,-1,-0.008126,-0.005081,0.017680,0.003857,-0.004582,0.001621
"2018-06-06 19:21:05.837 +0000",1528312865.837430,0.555780,-0.254896,-0.081715,0.510558,0.252145,-0.822041,0.000000,0.000000,0.000000,-1,-0.010094,-0.005015,0.000474,0.001572,-0.000161,0.001286
"2018-06-06 19:21:05.928 +0000",1528312865.928092,0.555296,-0.255278,-0.081967,0.510110,0.252514,-0.822206,0.000000,0.000000,0.000000,-1,0.006733,-0.001661,-0.002782,-0.003183,0.001545,-0.001295
"2018-06-06 19:21:06.019 +0000",1528312866.018754,0.555327,-0.255089,-0.082071,0.510161,0.252332,-0.822231,0.000000,0.000000,0.000000,-1,-0.002785,0.004868,0.004789,0.000124,-0.004087,-0.000477
"2018-06-06 19:21:06.109 +0000",1528312866.109416,0.555924,-0.255260,-0.082046,0.510629,0.252497,-0.821890,0.000000,0.000000,0.000000,-1,0.002535,0.002723,-0.003835,0.004554,-0.000879,0.002478
"2018-06-06 19:21:06.200 +0000",1528312866.200078,0.555843,-0.255250,-0.082495,0.510563,0.252488,-0.821933,0.000000,0.000000,0.000000,-1,0.001465,-0.001685,-0.000618,0.004131,-0.001740,0.002551
"2018-06-06 19:21:06.291 +0000",1528312866.290740,0.555665,-0.255238,-0.082222,0.510419,0.252476,-0.822026,0.000000,0.000000,0.000000,-1,-0.005061,-0.002452,0.005086,-0.000256,-0.002263,-0.001323
"2018-06-06 19:21:06.381 +0000",1528312866.381402,0.555782,-0.255128,-0.081682,0.510529,0.252369,-0.821991,0.000000,0.000000,0.000000,-1,-0.000844,-0.001334,0.002928,0.000839,-0.000538,0.001068
"2018-06-06 19:21:06.472 +0000",1528312866.472063,0.555698,-0.255083,-0.081905,0.510466,0.252326,-0.822043,0.000000,0.000000,0.000000,-1,-0.000779,-0.000200,-0.005674,0.002275,-0.001761,0.001853
"2018-06-06 19:21:06.563 +0000",1528312866.562725,0.555681,-0.255026,-0.082244,0.510460,0.252270,-0.822064,0.000000,0.000000,0.000000,-1,0.001270,0.001975,0.000782,0.003791,-0.000897,0.002423
"2018-06-06 19:21:06.653 +0000",1528312866.653387,0.555702,-0.254763,-0.081995,0.510512,0.252016,-0.822110,0.000000,0.000000,0.000000,-1,-0.001902,-0.002439,0.004003,0.003495,-0.002641,0.001141
"2018-06-06 19:21:06.744 +0000",1528312866.744048,0.555610,-0.254760,-0.081656,0.510437,0.252013,-0.822157,0.000000,0.000000,0.000000,-1,-0.000834,-0.003525,0.001846,0.000931,-0.001815,0.000929
"2018-06-06 19:21:06.835 +0000",1528312866.834710,0.555504,-0.254882,-0.081715,0.510334,0.252131,-0.822185,0.000000,0.000000,0.000000,-1,-0.000823,0.001973,-0.000289,0.000775,-0.002559,0.001171
"2018-06-06 19:21:06.925 +0000",1528312866.925372,0.555541,-0.255020,-0.082096,0.510345,0.252264,-0.822137,0.000000,0.000000,0.000000,-1,-0.002889,0.000888,-0.004590,0.004059,-0.002127,0.001123
"2018-06-06 19:21:07.016 +0000",1528312867.016033,0.555336,-0.255357,-0.082247,0.510132,0.252590,-0.822169,0.000000,0.000000,0.000000,-1,-0.002905,-0.000219,-0.002442,0.002197,-0.000439,0.002330
"2018-06-06 19:21:07.107 +0000",1528312867.106695,0.555010,-0.255475,-0.082423,0.509848,0.252705,-0.822310,0.000000,0.000000,0.000000,-1,-0.006056,-0.000228,-0.002435,0.001886,-0.002278,0.000731
"2018-06-06 19:21:07.197 +0000",1528312867.197357,0.554890,-0.255763,-0.082469,0.509712,0.252984,-0.822309,0.000000,0.000000,0.000000,-1,-0.003953,-0.002418,-0.002446,0.000329,-0.002877,0.002729
"2018-06-06 19:21:07.288 +0000",1528312867.288018,0.554861,-0.255773,-0.082409,0.509686,0.252993,-0.822322,0.000000,0.000000,0.000000,-1,0.001255,-0.000229,0.002928,0.002094,-0.001116,0.001125
"2018-06-06 19:21:07.379 +0000",1528312867.378680,0.554731,-0.255655,-0.082328,0.509595,0.252879,-0.822414,0.000000,0.000000,0.000000,-1,0.000205,-0.000232,0.002930,0.002459,-0.001002,0.001247
"2018-06-06 19:21:07.469 +0000",1528312867.469342,0.554795,-0.255517,-0.082213,0.509666,0.252746,-0.822410,0.000000,0.000000,0.000000,-1,0.002312,0.001974,0.001856,0.003105,-0.001754,0.002235
"2018-06-06 19:21:07.560 +0000",1528312867.560003,0.554891,-0.255326,-0.081910,0.509770,0.252561,-0.822403,0.000000,0.000000,0.000000,-1,0.001253,0.001967,0.002934,0.002559,-0.000578,0.001404
"2018-06-06 19:21:07.651 +0000",1528312867.650665,0.554904,-0.255225,-0.081840,0.509794,0.252463,-0.822418,0.000000,0.000000,0.000000,-1,0.001280,-0.000215,-0.000299,0.002687,-0.002585,0.002273
"2018-06-06 19:21:07.741 +0000",1528312867.741327,0.554944,-0.255207,-0.081739,0.509830,0.252445,-0.822401,0.000000,0.000000,0.000000,-1,-0.000827,-0.002421,0.000775,0.002529,-0.001133,0.001844
"2018-06-06 19:21:07.832 +0000",1528312867.831988,0.554936,-0.255231,-0.081626,0.509820,0.252468,-0.822400,0.000000,0.000000,0.000000,-1,-0.002931,0.000866,0.000789,0.002356,-0.001233,0.001905
"2018-06-06 19:21:07.923 +0000",1528312867.922650,0.554952,-0.255336,-0.081704,0.509819,0.252571,-0.822369,0.000000,0.000000,0.000000,-1,-0.000788,-0.000203,-0.004597,0.002678,-0.000877,0.002530
"2018-06-06 19:21:08.013 +0000",1528312868.013312,0.554998,-0.255338,-0.081717,0.509857,0.252573,-0.822345,0.000000,0.000000,0.000000,-1,-0.001881,0.001967,0.000790,0.005020,-0.001413,0.001468
"2018-06-06 19:21:08.104 +0000",1528312868.103973,0.555020,-0.255469,-0.081593,0.509857,0.252699,-0.822306,0.000000,0.000000,0.000000,-1,-0.005014,-0.000228,-0.001360,0.001465,-0.003752,0.002848
"2018-06-06 19:21:08.195 +0000",1528312868.194635,0.555097,-0.255423,-0.081575,0.509927,0.252654,-0.822277,0.000000,0.000000,0.000000,-1,0.001271,0.000878,0.000780,0.002189,-0.001235,0.001369
"2018-06-06 19:21:08.285 +0000",1528312868.285296,0.555170,-0.255327,-0.081444,0.510000,0.252562,-0.822260,0.000000,0.000000,0.000000,-1,0.000332,0.001088,0.000273,0.003611,-0.001982,0.001856
"2018-06-06 19:21:08.376 +0000",1528312868.375958,0.555037,-0.255379,-0.081610,0.509883,0.252612,-0.822317,0.000000,0.000000,0.000000,-1,-0.000675,-0.001088,-0.005109,0.003056,-0.001864,0.002020
"2018-06-06 19:21:08.467 +0000",1528312868.466620,0.554922,-0.255497,-0.081654,0.509773,0.252726,-0.822350,0.000000,0.000000,0.000000,-1,-0.000709,-0.000008,-0.000803,0.003548,-0.001704,0.002526
"2018-06-06 19:21:08.557 +0000",1528312868.557281,0.554758,-0.255476,-0.081777,0.509641,0.252706,-0.822438,0.000000,0.000000,0.000000,-1,0.000343,-0.002201,-0.000812,0.003421,-0.001867,0.002034
"2018-06-06 19:21:08.648 +0000",1528312868.647943,0.554603,-0.255521,-0.081866,0.509508,0.252749,-0.822507,0.000000,0.000000,0.000000,-1,0.000350,-0.001098,-0.001885,0.002226,-0.001651,0.000226
"2018-06-06 19:21:08.739 +0000",1528312868.738604,0.554798,-0.255454,-0.081873,0.509677,0.252685,-0.822422,0.000000,0.000000,0.000000,-1,0.000313,0.003275,0.002431,0.003461,-0.002685,0.000767
"2018-06-06 19:21:08.829 +0000",1528312868.829266,0.554740,-0.255676,-0.081872,0.509600,0.252899,-0.822404,0.000000,0.000000,0.000000,-1,-0.000683,-0.001092,-0.004033,0.005537,-0.002106,0.003465
"2018-06-06 19:21:08.920 +0000",1528312868.919928,0.554470,-0.255791,-0.082194,0.509362,0.253011,-0.822517,0.000000,0.000000,0.000000,-1,0.001417,-0.001086,-0.004038,0.002952,-0.002416,-0.000023
"2018-06-06 19:21:09.011 +0000",1528312869.010589,0.554552,-0.256012,-0.081896,0.509400,0.253225,-0.822428,0.000000,0.000000,0.000000,-1,-0.000720,0.002183,0.000279,0.004013,-0.002294,0.003336
"2018-06-06 19:21:09.101 +0000",1528312869.101251,0.554717,-0.256056,-0.081857,0.509530,0.253267,-0.822334,0.000000,0.000000,0.000000,-1,0.004517,0.001091,0.002415,0.002707,-0.001360,0.002144
"2018-06-06 19:21:09.192 +0000",1528312869.191912,0.554797,-0.256004,-0.081792,0.509602,0.253217,-0.822305,0.000000,0.000000,0.000000,-1,-0.001766,-0.002211,0.000268,0.005565,-0.002805,0.001748
"2018-06-06 19:21:09.283 +0000",1528312869.282574,0.554721,-0.256073,-0.081916,0.509531,0.253283,-0.822329,0.000000,0.000000,0.000000,-1,0.000404,-0.004201,-0.001489,0.004629,-0.002582,0.002382
"2018-06-06 19:21:09.373 +0000",1528312869.373236,0.554784,-0.256273,-0.081730,0.509556,0.253477,-0.822253,0.000000,0.000000,0.000000,-1,-0.002780,0.003460,0.001767,0.003993,-0.000837,0.002795
"2018-06-06 19:21:09.464 +0000",1528312869.463897,0.554904,-0.256277,-0.081812,0.509654,0.253481,-0.822191,0.000000,0.000000,0.000000,-1,0.002511,-0.003093,-0.002566,0.003606,-0.000246,0.004107
"2018-06-06 19:21:09.555 +0000",1528312869.554559,0.554598,-0.256097,-0.082154,0.509426,0.253307,-0.822386,0.000000,0.000000,0.000000,-1,0.004598,-0.005292,-0.000426,0.005009,-0.003780,0.002776
"2018-06-06 19:21:09.645 +0000",1528312869.645220,0.554428,-0.256278,-0.082437,0.509263,0.253482,-0.822434,0.000000,0.000000,0.000000,-1,-0.004826,-0.002007,-0.004698,0.003356,-0.003284,0.003159
"2018-06-06 19:21:09.736 +0000",1528312869.735882,0.554083,-0.256386,-0.082880,0.508965,0.253586,-0.822586,0.000000,0.000000,0.000000,-1,0.003589,-0.005272,-0.005802,0.005134,-0.003235,0.002319
"2018-06-06 19:21:09.827 +0000",1528312869.826543,0.553841,-0.256495,-0.083225,0.508751,0.253692,-0.822686,0.000000,0.000000,0.000000,-1,0.001453,-0.003101,-0.001488,0.003288,-0.003966,0.001031
"2018-06-06 19:21:09.917 +0000",1528312869.917205,0.554150,-0.256579,-0.083098,0.508994,0.253773,-0.822510,0.000000,0.000000,0.000000,-1,0.002487,0.004582,-0.000393,0.005167,0.000636,0.001725
"2018-06-06 19:21:10.008 +0000",1528312870.007866,0.554201,-0.256300,-0.083240,0.509073,0.253504,-0.822545,0.000000,0.000000,0.000000,-1,0.005626,0.000191,0.001739,0.003180,-0.000879,0.003026
"2018-06-06 19:21:10.099 +0000",1528312870.098528,0.554195,-0.255996,-0.083388,0.509109,0.253209,-0.822613,0.000000,0.000000,0.000000,-1,0.004579,-0.003106,0.001731,0.005204,-0.004140,0.004131
"2018-06-06 19:21:10.189 +0000",1528312870.189190,0.554077,-0.255706,-0.083444,0.509050,0.252929,-0.822735,0.000000,0.000000,0.000000,-1,0.004596,-0.003097,-0.000420,0.006040,-0.002456,0.002682
"2018-06-06 19:21:10.280 +0000",1528312870.279851,0.553716,-0.255600,-0.083616,0.508767,0.252825,-0.822942,0.000000,0.000000,0.000000,-1,0.002506,-0.006393,-0.001502,0.003898,-0.000979,0.004125
"2018-06-06 19:21:10.371 +0000",1528312870.370513,0.553361,-0.255399,-0.083671,0.508502,0.252632,-0.823166,0.000000,0.000000,0.000000,-1,0.003530,-0.004208,0.001729,0.003019,-0.001396,0.002945
"2018-06-06 19:21:10.461 +0000",1528312870.461174,0.553225,-0.255008,-0.083477,0.508441,0.252253,-0.823319,0.000000,0.000000,0.000000,-1,0.003518,-0.000920,0.002814,0.005124,-0.001200,0.002671
"2018-06-06 19:21:10.552 +0000",1528312870.551836,0.553038,-0.254619,-0.083568,0.508339,0.251877,-0.823498,0.000000,0.000000,0.000000,-1,0.003547,-0.005297,-0.000426,0.005333,-0.001663,0.003597
"2018-06-06 19:21:10.642 +0000",1528312870.642498,0.552756,-0.254417,-0.083729,0.508134,0.251681,-0.823684,0.000000,0.000000,0.000000,-1,0.003535,-0.000911,0.000663,0.002410,-0.002291,0.002563
"2018-06-06 19:21:10.733 +0000",1528312870.733160,0.552713,-0.254175,-0.083706,0.508131,0.251447,-0.823757,0.000000,0.000000,0.000000,-1,0.000358,0.000165,0.003900,0.004565,-0.001935,0.002301
"2018-06-06 19:21:10.824 +0000",1528312870.823821,0.553314,-0.253871,-0.083538,0.508666,0.251153,-0.823517,0.000000,0.000000,0.000000,-1,0.000328,0.013329,0.006090,0.001238,-0.001046,0.001801
"2018-06-06 19:21:10.914 +0000",1528312870.914483,0.554460,-0.252917,-0.082870,0.509735,0.250229,-0.823137,0.000000,0.000000,0.000000,-1,0.008704,0.007845,0.010357,0.006775,0.000030,0.002504
"2018-06-06 19:21:11.005 +0000",1528312871.005144,0.554848,-0.252010,-0.082832,0.510173,0.249351,-0.823132,0.000000,0.000000,0.000000,-1,0.001435,-0.002014,0.000664,0.008214,-0.004783,0.003048
"2018-06-06 19:21:11.096 +0000",1528312871.095806,0.554908,-0.252011,-0.082803,0.510222,0.249352,-0.823101,0.000000,0.000000,0.000000,-1,-0.003791,-0.003113,-0.002554,0.003541,-0.003045,0.002224
"2018-06-06 19:21:11.186 +0000",1528312871.186466,0.554669,-0.252057,-0.083052,0.510020,0.249397,-0.823213,0.000000,0.000000,0.000000,-1,0.002534,-0.000886,-0.005789,0.003774,-0.002952,0.002458
"2018-06-06 19:21:11.277 +0000",1528312871.277128,0.554537,-0.252058,-0.083112,0.509911,0.249398,-0.823280,0.000000,0.000000,0.000000,-1,0.000375,-0.000924,0.001745,0.005073,-0.001686,0.003090
"2018-06-06 19:21:11.368 +0000",1528312871.367790,0.554274,-0.252143,-0.083030,0.509684,0.249480,-0.823396,0.000000,0.000000,0.000000,-1,0.000056,-0.006394,-0.002573,0.004660,-0.001540,0.004899
"2018-06-06 19:21:11.458 +0000",1528312871.458452,0.553919,-0.252319,-0.083206,0.509368,0.249650,-0.823540,0.000000,0.000000,0.000000,-1,-0.000987,-0.005295,-0.003643,0.004518,-0.001695,0.001823
"2018-06-06 19:21:11.549 +0000",1528312871.549112,0.553769,-0.252367,-0.083353,0.509238,0.249697,-0.823606,0.000000,0.000000,0.000000,-1,-0.003109,-0.000919,-0.001474,0.005944,-0.002031,0.003995
"2018-06-06 19:21:11.640 +0000",1528312871.639774,0.553655,-0.252582,-0.083272,0.509116,0.249905,-0.823618,0.000000,0.000000,0.000000,-1,-0.004166,-0.002024,-0.000399,0.005258,-0.003247,0.003580
"2018-06-06 19:21:11.730 +0000",1528312871.730435,0.553585,-0.252625,-0.083174,0.509052,0.249947,-0.823645,0.000000,0.000000,0.000000,-1,0.001056,0.002368,0.002829,0.002621,0.000145,0.001791
"2018-06-06 19:21:11.821 +0000",1528312871.821097,0.553493,-0.252380,-0.083154,0.509009,0.249709,-0.823744,0.000000,0.000000,0.000000,-1,0.003184,0.000192,-0.000409,0.006143,-0.004668,0.003263
"2018-06-06 19:21:11.912 +0000",1528312871.911758,0.553522,-0.252532,-0.083407,0.509013,0.249856,-0.823697,0.000000,0.000000,0.000000,-1,-0.000996,0.003487,-0.003617,0.004705,-0.002435,0.003384
"2018-06-06 19:21:12.002 +0000",1528312872.002420,0.553554,-0.252684,-0.083289,0.509019,0.250003,-0.823648,0.000000,0.000000,0.000000,-1,-0.001039,-0.003126,0.002817,0.005171,-0.001666,0.002542
"2018-06-06 19:21:12.093 +0000",1528312872.093081,0.553571,-0.252606,-0.083265,0.509043,0.249928,-0.823656,0.000000,0.000000,0.000000,-1,0.001091,0.000191,-0.001480,0.004324,-0.002187,0.002702
"2018-06-06 19:21:12.184 +0000",1528312872.183743,0.553316,-0.252458,-0.083670,0.508853,0.249785,-0.823817,0.000000,0.000000,0.000000,-1,0.003238,-0.004172,-0.006876,0.006009,-0.002699,0.004054
"2018-06-06 19:21:12.274 +0000",1528312872.274405,0.553024,-0.252578,-0.084131,0.508596,0.249901,-0.823940,0.000000,0.000000,0.000000,-1,0.000060,-0.001999,-0.003636,0.003931,-0.004189,0.002315
"2018-06-06 19:21:12.365 +0000",1528312872.365066,0.553001,-0.252674,-0.084247,0.508565,0.249994,-0.823931,0.000000,0.000000,0.000000,-1,0.002280,-0.000334,-0.001206,0.004710,-0.001443,0.003634
"2018-06-06 19:21:12.456 +0000",1528312872.455727,0.553129,-0.252646,-0.084215,0.508674,0.249967,-0.823872,0.000000,0.000000,0.000000,-1,0.001220,0.001855,-0.000122,0.005974,-0.002897,0.004277
"2018-06-06 19:21:12.546 +0000",1528312872.546389,0.553306,-0.252682,-0.084296,0.508816,0.250001,-0.823774,0.000000,0.000000,0.000000,-1,0.002278,0.001862,-0.001200,0.004917,-0.001359,0.001554
"2018-06-06 19:21:12.637 +0000",1528312872.637050,0.553350,-0.252607,-0.084337,0.508861,0.249929,-0.823768,0.000000,0.000000,0.000000,-1,0.002289,-0.000329,-0.002282,0.006688,-0.002691,0.003929
"2018-06-06 19:21:12.728 +0000",1528312872.727712,0.553155,-0.252591,-0.084559,0.508703,0.249914,-0.823871,0.000000,0.000000,0.000000,-1,0.001257,-0.002518,-0.004437,0.006449,-0.003438,0.003711
"2018-06-06 19:21:12.818 +0000",1528312872.818373,0.553088,-0.252682,-0.084748,0.508636,0.250002,-0.823885,0.000000,0.000000,0.000000,-1,-0.000864,0.000760,-0.002271,0.002885,-0.000963,0.002047
"2018-06-06 19:21:12.909 +0000",1528312872.909035,0.553142,-0.252754,-0.084986,0.508670,0.250071,-0.823843,0.000000,0.000000,0.000000,-1,0.000204,-0.000326,-0.004428,0.007306,-0.003474,0.002981
"2018-06-06 19:21:13.000 +0000",1528312872.999696,0.552955,-0.253059,-0.085472,0.508476,0.250367,-0.823873,0.000000,0.000000,0.000000,-1,-0.002920,-0.002517,-0.007655,0.007225,-0.002519,0.005315
"2018-06-06 19:21:13.090 +0000",1528312873.090358,0.552610,-0.253343,-0.085760,0.508155,0.250641,-0.823988,0.000000,0.000000,0.000000,-1,0.000183,-0.003633,-0.001211,0.002069,-0.002411,0.002622
"2018-06-06 19:21:13.181 +0000",1528312873.181019,0.552489,-0.253235,-0.085660,0.508069,0.250537,-0.824072,0.000000,0.000000,0.000000,-1,0.000151,-0.004749,0.003088,0.003253,-0.003360,0.001166
"2018-06-06 19:21:13.272 +0000",1528312873.271680,0.552723,-0.253181,-0.085527,0.508269,0.250485,-0.823965,0.000000,0.000000,0.000000,-1,0.001209,0.004046,0.000960,0.007905,-0.002468,0.005163
"2018-06-06 19:21:13.362 +0000",1528312873.362343,0.552956,-0.253298,-0.085395,0.508446,0.250598,-0.823822,0.000000,0.000000,0.000000,-1,-0.001012,0.000697,0.002274,0.003273,-0.000537,0.002380
"2018-06-06 19:21:13.453 +0000",1528312873.453003,0.553207,-0.253058,-0.085102,0.508685,0.250365,-0.823745,0.000000,0.000000,0.000000,-1,0.001098,-0.000391,0.001191,0.004652,-0.004119,0.004882
"2018-06-06 19:21:13.544 +0000",1528312873.543665,0.553298,-0.253061,-0.085094,0.508758,0.250369,-0.823698,0.000000,0.000000,0.000000,-1,0.000072,0.000718,-0.002031,0.005020,-0.003970,0.003645
"2018-06-06 19:21:13.634 +0000",1528312873.634326,0.553454,-0.253213,-0.084900,0.508867,0.250516,-0.823586,0.000000,0.000000,0.000000,-1,-0.001012,0.000697,0.002274,0.004027,-0.001782,0.003365
"2018-06-06 19:21:13.725 +0000",1528312873.724988,0.553756,-0.253366,-0.084466,0.509096,0.250664,-0.823400,0.000000,0.000000,0.000000,-1,-0.004163,0.000688,0.002281,0.005629,-0.004707,0.004140
"2018-06-06 19:21:13.816 +0000",1528312873.815650,0.554193,-0.253930,-0.083961,0.509381,0.251210,-0.823057,0.000000,0.000000,0.000000,-1,-0.007353,0.007247,0.006610,0.005237,-0.001759,0.002988
"2018-06-06 19:21:13.906 +0000",1528312873.906312,0.555291,-0.255009,-0.082619,0.510141,0.252254,-0.822266,0.000000,0.000000,0.000000,-1,-0.017883,0.017089,0.008814,0.002371,0.014668,-0.017852
"2018-06-06 19:21:13.997 +0000",1528312873.996973,0.557331,-0.254961,-0.082726,0.511824,0.252208,-0.821234,0.000000,0.000000,0.000000,-1,0.037995,0.014064,-0.018213,0.015291,0.004109,0.004919
"2018-06-06 19:21:14.088 +0000",1528312874.087635,0.555991,-0.253607,-0.087315,0.510903,0.250897,-0.822208,0.000000,0.000000,0.000000,-1,0.018218,-0.017745,-0.037622,0.017249,-0.003262,0.002476
"2018-06-06 19:21:14.178 +0000",1528312874.178296,0.554732,-0.253936,-0.089999,0.509824,0.251216,-0.822781,0.000000,0.000000,0.000000,-1,0.005471,-0.006875,-0.020351,-0.002286,-0.012461,0.004650
"2018-06-06 19:21:14.269 +0000",1528312874.268957,0.555130,-0.253731,-0.091003,0.510178,0.251018,-0.822622,0.000000,0.000000,0.000000,-1,0.001093,0.005098,0.001207,0.004256,-0.006602,0.003392
"2018-06-06 19:21:14.360 +0000",1528312874.359618,0.555679,-0.253673,-0.089765,0.510637,0.250961,-0.822354,0.000000,0.000000,0.000000,-1,-0.022105,-0.001679,0.014147,0.011198,-0.016357,0.004193
"2018-06-06 19:21:14.450 +0000",1528312874.450279,0.556330,-0.254774,-0.086887,0.511027,0.252027,-0.821786,0.000000,0.000000,0.000000,-1,-0.021089,-0.008286,0.019504,0.006109,0.004687,0.001413
"2018-06-06 19:21:14.541 +0000",1528312874.540941,0.556464,-0.255142,-0.084810,0.511088,0.252383,-0.821639,0.000000,0.000000,0.000000,-1,0.003128,-0.009284,0.011916,0.000158,0.002683,0.003569
"2018-06-06 19:21:14.632 +0000",1528312874.631602,0.556174,-0.254827,-0.085912,0.510892,0.252078,-0.821854,0.000000,0.000000,0.000000,-1,0.008577,-0.000374,-0.014962,-0.001263,-0.003970,0.003846
"2018-06-06 19:21:14.722 +0000",1528312874.722264,0.556546,-0.255214,-0.087254,0.511145,0.252452,-0.821582,0.000000,0.000000,0.000000,-1,-0.004098,0.013830,-0.007362,-0.001822,-0.003459,0.002200
"2018-06-06 19:21:14.813 +0000",1528312874.812925,0.557786,-0.255364,-0.087543,0.512144,0.252598,-0.820915,0.000000,0.000000,0.000000,-1,0.002161,0.014922,-0.001995,0.011263,-0.004215,0.002464
"2018-06-06 19:21:14.904 +0000",1528312874.903586,0.558219,-0.255577,-0.087564,0.512471,0.252803,-0.820647,0.000000,0.000000,0.000000,-1,-0.007295,0.000616,0.000137,0.012081,-0.000988,0.001571
"2018-06-06 19:21:14.994 +0000",1528312874.994248,0.557967,-0.255498,-0.087240,0.512274,0.252728,-0.820793,0.000000,0.000000,0.000000,-1,0.004263,-0.011432,0.001151,0.006921,-0.005078,0.000038
"2018-06-06 19:21:15.085 +0000",1528312875.084909,0.558073,-0.255782,-0.087028,0.512324,0.253002,-0.820678,0.000000,0.000000,0.000000,-1,0.000065,0.010525,-0.002003,0.000631,-0.000454,0.002273
"2018-06-06 19:21:15.176 +0000",1528312875.175571,0.558689,-0.255964,-0.087174,0.512804,0.253178,-0.820324,0.000000,0.000000,0.000000,-1,-0.000960,0.001749,-0.004177,0.007627,-0.001057,0.003216
"2018-06-06 19:21:15.266 +0000",1528312875.266232,0.558351,-0.255806,-0.087876,0.512549,0.253026,-0.820530,0.000000,0.000000,0.000000,-1,0.009560,-0.006999,-0.005302,0.010309,-0.002736,0.004307
"2018-06-06 19:21:15.357 +0000",1528312875.356892,0.557496,-0.255721,-0.088429,0.511858,0.252943,-0.820987,0.000000,0.000000,0.000000,-1,0.005354,-0.010307,-0.004225,0.003355,-0.002271,0.003146
"2018-06-06 19:21:15.448 +0000",1528312875.447554,0.557336,-0.255700,-0.088727,0.511729,0.252923,-0.821073,0.000000,0.000000,0.000000,-1,0.000017,0.009402,0.004449,-0.000850,-0.006691,0.001066
"2018-06-06 19:21:15.538 +0000",1528312875.538215,0.558601,-0.255623,-0.087781,0.512778,0.252848,-0.820442,0.000000,0.000000,0.000000,-1,-0.010554,0.010434,0.013082,0.009515,-0.001704,0.001350
"2018-06-06 19:21:15.629 +0000",1528312875.628877,0.559385,-0.255793,-0.086338,0.513398,0.253013,-0.820003,0.000000,0.000000,0.000000,-1,-0.009450,-0.002713,0.007663,0.009978,-0.001213,0.003902
"2018-06-06 19:21:15.720 +0000",1528312875.719538,0.559285,-0.256091,-0.086069,0.513276,0.253301,-0.819990,0.000000,0.000000,0.000000,-1,-0.002015,-0.002648,-0.003110,0.003463,0.000773,0.001936
"2018-06-06 19:21:15.810 +0000",1528312875.810200,0.559051,-0.256291,-0.086583,0.513058,0.253495,-0.820067,0.000000,0.000000,0.000000,-1,-0.000960,0.001751,-0.004176,0.000873,-0.003174,0.002623
"2018-06-06 19:21:15.901 +0000",1528312875.900861,0.559400,-0.256351,-0.086998,0.513336,0.253553,-0.819876,0.000000,0.000000,0.000000,-1,0.005305,0.006141,0.000125,0.002091,-0.000837,0.001821
"2018-06-06 19:21:15.992 +0000",1528312875.991522,0.559485,-0.255871,-0.087203,0.513470,0.253088,-0.819935,0.000000,0.000000,0.000000,-1,-0.003126,0.009398,0.003381,0.011295,-0.015570,0.015049
"2018-06-06 19:21:16.082 +0000",1528312876.082184,0.560673,-0.256141,-0.086593,0.514407,0.253349,-0.819267,0.000000,0.000000,0.000000,-1,0.001279,-0.004757,-0.021410,-0.011966,-0.001198,0.023475
"2018-06-06 19:21:16.173 +0000",1528312876.172845,0.559207,-0.255616,-0.086602,0.513276,0.252842,-0.820132,0.000000,0.000000,0.000000,-1,0.011613,-0.009214,0.001142,-0.001481,-0.002201,0.001651
"2018-06-06 19:21:16.264 +0000",1528312876.263507,0.558448,-0.255822,-0.085395,0.512626,0.253040,-0.820478,0.000000,0.000000,0.000000,-1,-0.006347,0.012646,0.012003,-0.011177,-0.000050,-0.007968
"2018-06-06 19:21:16.354 +0000",1528312876.354169,0.559912,-0.255476,-0.086086,0.513873,0.252706,-0.819800,0.000000,0.000000,0.000000,-1,0.010666,0.020493,-0.015981,0.004209,0.001612,0.008063
"2018-06-06 19:21:16.445 +0000",1528312876.444830,0.561138,-0.255534,-0.088600,0.514870,0.252762,-0.819157,0.000000,0.000000,0.000000,-1,0.008616,0.019417,-0.022434,0.011024,-0.009720,0.003178
"2018-06-06 19:21:16.535 +0000",1528312876.535492,0.561777,-0.256201,-0.088798,0.515303,0.253407,-0.818685,0.000000,0.000000,0.000000,-1,-0.012638,0.001649,0.011984,0.012162,-0.006520,0.011449
"2018-06-06 19:21:16.626 +0000",1528312876.626153,0.560769,-0.257380,-0.085615,0.514318,0.254548,-0.818951,0.000000,0.000000,0.000000,-1,-0.038974,-0.029220,0.025938,0.007609,-0.002396,0.002560
"2018-06-06 19:21:16.717 +0000",1528312876.716814,0.559142,-0.258509,-0.083721,0.512833,0.255639,-0.819542,0.000000,0.000000,0.000000,-1,-0.011423,-0.023519,-0.006378,-0.003342,0.003974,-0.000938
"2018-06-06 19:21:16.807 +0000",1528312876.807476,0.557470,-0.258653,-0.085105,0.511442,0.255778,-0.820368,0.000000,0.000000,0.000000,-1,0.010703,-0.009142,-0.017143,-0.006041,0.000158,0.000376
"2018-06-06 19:21:16.898 +0000",1528312876.898137,0.556865,-0.258595,-0.086997,0.510953,0.255722,-0.820689,0.000000,0.000000,0.000000,-1,0.013885,0.001867,-0.022497,0.008471,0.000946,0.006664
"2018-06-06 19:21:16.989 +0000",1528312876.988799,0.555894,-0.258645,-0.089560,0.510150,0.255771,-0.821174,0.000000,0.000000,0.000000,-1,0.011751,0.001843,-0.018189,-0.000018,-0.006488,0.001640
"2018-06-06 19:21:17.079 +0000",1528312877.079460,0.556466,-0.258899,-0.090833,0.510585,0.256017,-0.820827,0.000000,0.000000,0.000000,-1,-0.003065,0.013823,-0.005213,0.006124,-0.005880,-0.000645
"2018-06-06 19:21:17.170 +0000",1528312877.170121,0.557183,-0.258343,-0.090007,0.511248,0.255479,-0.820582,0.000000,0.000000,0.000000,-1,-0.000051,-0.006014,0.015160,0.015378,-0.002504,0.006785
"2018-06-06 19:21:17.261 +0000",1528312877.260783,0.556440,-0.258436,-0.088342,0.510627,0.255569,-0.820941,0.000000,0.000000,0.000000,-1,-0.014702,-0.010418,0.008727,0.005914,-0.004561,0.000766
"2018-06-06 19:21:17.351 +0000",1528312877.351444,0.556321,-0.258774,-0.087692,0.510483,0.255896,-0.820928,0.000000,0.000000,0.000000,-1,0.000048,0.002831,0.001205,-0.004608,0.003214,-0.000941
"2018-06-06 19:21:17.442 +0000",1528312877.442105,0.557176,-0.258177,-0.087736,0.511266,0.255319,-0.820621,0.000000,0.000000,0.000000,-1,0.006299,0.012706,0.006598,0.004436,-0.002282,0.003040
"2018-06-06 19:21:17.533 +0000",1528312877.532767,0.557816,-0.257813,-0.087512,0.511840,0.254966,-0.820372,0.000000,0.000000,0.000000,-1,0.000009,0.000613,0.006577,0.010651,-0.003700,0.003722
"2018-06-06 19:21:17.623 +0000",1528312877.623428,0.557896,-0.257529,-0.086836,0.511944,0.254692,-0.820393,0.000000,0.000000,0.000000,-1,0.001031,-0.004891,0.010861,0.001942,0.001320,0.003834
"2018-06-06 19:21:17.714 +0000",1528312877.714090,0.557492,-0.256388,-0.086285,0.511766,0.253588,-0.820846,0.000000,0.000000,0.000000,-1,0.009432,-0.011459,0.011898,0.003936,-0.004153,0.003951
"2018-06-06 19:21:17.805 +0000",1528312877.804751,0.556983,-0.255872,-0.086203,0.511417,0.253089,-0.821217,0.000000,0.000000,0.000000,-1,0.000043,-0.000467,0.002271,0.001904,-0.004234,0.002873
"2018-06-06 19:21:17.895 +0000",1528312877.895412,0.556824,-0.255794,-0.086033,0.511296,0.253013,-0.821315,0.000000,0.000000,0.000000,-1,0.000049,-0.007053,0.002252,0.002955,-0.003258,0.003643
"2018-06-06 19:21:17.986 +0000",1528312877.986074,0.556854,-0.255837,-0.086260,0.511316,0.253055,-0.821290,0.000000,0.000000,0.000000,-1,0.005376,0.000691,-0.008494,0.003195,-0.005237,-0.001464
"2018-06-06 19:21:18.077 +0000",1528312878.076735,0.556998,-0.256462,-0.088004,0.511350,0.253660,-0.821082,0.000000,0.000000,0.000000,-1,0.003424,-0.008020,-0.026801,0.004519,0.011858,-0.003594
"2018-06-06 19:21:18.167 +0000",1528312878.167396,0.557065,-0.256778,-0.089530,0.511363,0.253966,-0.820980,0.000000,0.000000,0.000000,-1,0.020110,0.013927,-0.013868,0.002065,-0.000228,-0.004612
"2018-06-06 19:21:18.258 +0000",1528312878.258058,0.557529,-0.255391,-0.090617,0.511929,0.252624,-0.821041,0.000000,0.000000,0.000000,-1,0.015793,-0.003721,0.003301,0.023822,0.005509,0.013439
"2018-06-06 19:21:18.349 +0000",1528312878.348720,0.555579,-0.255082,-0.091347,0.510369,0.252325,-0.822104,0.000000,0.000000,0.000000,-1,-0.005098,-0.012502,-0.010659,0.001655,-0.009527,-0.002298
"2018-06-06 19:21:18.439 +0000",1528312878.439381,0.555510,-0.255770,-0.092056,0.510220,0.252991,-0.821991,0.000000,0.000000,0.000000,-1,0.002230,0.003980,-0.009552,-0.002728,-0.001572,-0.000885
"2018-06-06 19:21:18.530 +0000",1528312878.530043,0.556049,-0.256161,-0.092651,0.510611,0.253368,-0.821632,0.000000,0.000000,0.000000,-1,-0.008331,0.003919,-0.001999,0.005777,-0.005383,0.003563
"2018-06-06 19:21:18.621 +0000",1528312878.620704,0.556861,-0.256787,-0.091953,0.511193,0.253974,-0.821083,0.000000,0.000000,0.000000,-1,-0.012612,0.000569,0.008758,0.014624,-0.008384,0.008750
"2018-06-06 19:21:18.711 +0000",1528312878.711365,0.556181,-0.257477,-0.089894,0.510543,0.254641,-0.821281,0.000000,0.000000,0.000000,-1,-0.025314,-0.018191,0.023791,0.007142,-0.003130,0.001533
"2018-06-06 19:21:18.802 +0000",1528312878.802027,0.555476,-0.257991,-0.086235,0.509894,0.255138,-0.821529,0.000000,0.000000,0.000000,-1,-0.020139,-0.014924,0.033470,-0.001639,0.000568,0.003246
"2018-06-06 19:21:18.893 +0000",1528312878.892688,0.555202,-0.257906,-0.083757,0.509681,0.255056,-0.821688,0.000000,0.000000,0.000000,-1,-0.008415,-0.002717,0.009814,-0.001060,0.002848,0.000276
"2018-06-06 19:21:18.983 +0000",1528312878.983350,0.555637,-0.257823,-0.083580,0.510050,0.254976,-0.821484,0.000000,0.000000,0.000000,-1,0.005329,0.007255,-0.003096,0.000906,0.001967,-0.000294
"2018-06-06 19:21:19.074 +0000",1528312879.074011,0.556441,-0.257577,-0.084332,0.510743,0.254738,-0.821126,0.000000,0.000000,0.000000,-1,0.009552,0.010574,-0.006323,0.007293,-0.002755,0.003759
"2018-06-06 19:21:19.165 +0000",1528312879.164672,0.556747,-0.257025,-0.084985,0.511069,0.254205,-0.821089,0.000000,0.000000,0.000000,-1,0.004215,-0.003766,0.006555,0.010202,-0.005563,0.004683
"2018-06-06 19:21:19.255 +0000",1528312879.255334,0.556697,-0.256883,-0.083947,0.511046,0.254067,-0.821146,0.000000,0.000000,0.000000,-1,-0.011555,0.002772,0.007686,0.005739,-0.006356,0.000772
"2018-06-06 19:21:19.346 +0000",1528312879.345994,0.556937,-0.257044,-0.083269,0.511222,0.254223,-0.820988,0.000000,0.000000,0.000000,-1,0.002150,0.001737,0.001196,-0.000373,0.002323,0.001011
"2018-06-06 19:21:19.437 +0000",1528312879.436655,0.557094,-0.256525,-0.083706,0.511420,0.253721,-0.821020,0.000000,0.000000,0.000000,-1,0.006366,0.002856,-0.000962,0.003762,-0.004866,0.003073
"2018-06-06 19:21:19.527 +0000",1528312879.527317,0.557269,-0.256397,-0.083761,0.511581,0.253597,-0.820958,0.000000,0.000000,0.000000,-1,-0.003110,0.001718,0.002283,0.009201,-0.003002,0.004231
"2018-06-06 19:21:19.618 +0000",1528312879.617978,0.556964,-0.256585,-0.083453,0.511306,0.253779,-0.821073,0.000000,0.000000,0.000000,-1,-0.000978,-0.005947,-0.000971,0.002610,-0.002421,0.001905
"2018-06-06 19:21:19.709 +0000",1528312879.708639,0.556980,-0.256547,-0.083473,0.511324,0.253742,-0.821073,0.000000,0.000000,0.000000,-1,0.001124,0.001748,-0.002029,0.006025,-0.000598,0.001325
"2018-06-06 19:21:19.799 +0000",1528312879.799301,0.556952,-0.256551,-0.083320,0.511300,0.253746,-0.821087,0.000000,0.000000,0.000000,-1,-0.005206,-0.003776,0.002272,0.003348,-0.003898,0.004620
"2018-06-06 19:21:19.890 +0000",1528312879.889962,0.556934,-0.256719,-0.082868,0.511263,0.253908,-0.821060,0.000000,0.000000,0.000000,-1,-0.004176,0.000609,0.004434,-0.000093,-0.003069,0.000915
"2018-06-06 19:21:19.981 +0000",1528312879.980623,0.557188,-0.256694,-0.082712,0.511475,0.253884,-0.820935,0.000000,0.000000,0.000000,-1,0.002155,0.005035,0.000130,0.005554,-0.001198,0.002942
"2018-06-06 19:21:20.071 +0000",1528312880.071285,0.557308,-0.256718,-0.082874,0.511570,0.253908,-0.820869,0.000000,0.000000,0.000000,-1,-0.003090,-0.002664,0.000119,0.006558,-0.002244,0.002479
"2018-06-06 19:21:20.162 +0000",1528312880.161946,0.556948,-0.256803,-0.082787,0.511263,0.253989,-0.821035,0.000000,0.000000,0.000000,-1,-0.001004,-0.003765,0.002263,0.005109,-0.002082,0.002767
"2018-06-06 19:21:20.253 +0000",1528312880.252607,0.556683,-0.256770,-0.082382,0.511050,0.253958,-0.821177,0.000000,0.000000,0.000000,-1,-0.005214,-0.003781,0.003348,0.001142,-0.003424,0.000422
"2018-06-06 19:21:20.343 +0000",1528312880.343269,0.556902,-0.256776,-0.082158,0.511229,0.253963,-0.821064,0.000000,0.000000,0.000000,-1,0.001116,0.001744,-0.000953,0.002610,-0.002651,0.001377
"2018-06-06 19:21:20.434 +0000",1528312880.433930,0.557008,-0.256793,-0.082266,0.511314,0.253980,-0.821006,0.000000,0.000000,0.000000,-1,0.002181,-0.004835,-0.002050,0.008080,-0.001233,0.004813
"2018-06-06 19:21:20.525 +0000",1528312880.524591,0.556647,-0.256840,-0.082035,0.511011,0.254026,-0.821181,0.000000,0.000000,0.000000,-1,-0.004160,0.000618,0.002283,0.000098,-0.002759,0.002333
"2018-06-06 19:21:20.615 +0000",1528312880.615253,0.556961,-0.256554,-0.081825,0.511307,0.253749,-0.821082,0.000000,0.000000,0.000000,-1,0.007384,0.002841,0.003339,0.001572,0.001134,0.002997
"2018-06-06 19:21:20.706 +0000",1528312880.705914,0.557181,-0.255726,-0.082011,0.511599,0.252948,-0.821147,0.000000,0.000000,0.000000,-1,0.012670,0.001776,-0.000979,0.008909,-0.003116,0.005885
"2018-06-06 19:21:20.797 +0000",1528312880.796575,0.556173,-0.255343,-0.083040,0.510822,0.252577,-0.821744,0.000000,0.000000,0.000000,-1,0.002254,-0.012483,-0.010678,0.006313,-0.006590,0.001691
"2018-06-06 19:21:20.887 +0000",1528312880.887237,0.555498,-0.256085,-0.083464,0.510168,0.253295,-0.821930,0.000000,0.000000,0.000000,-1,-0.004118,0.000641,-0.003095,-0.003179,-0.002304,0.000702
"2018-06-06 19:21:20.978 +0000",1528312880.977898,0.555666,-0.256402,-0.083350,0.510264,0.253602,-0.821776,0.000000,0.000000,0.000000,-1,-0.008357,-0.003785,0.002280,0.004080,-0.007584,0.003386
"2018-06-06 19:21:21.069 +0000",1528312881.068559,0.555789,-0.257355,-0.082597,0.510237,0.254523,-0.821507,0.000000,0.000000,0.000000,-1,-0.012552,-0.001596,0.001220,0.006990,0.003793,0.003148
"2018-06-06 19:21:21.159 +0000",1528312881.159221,0.555493,-0.257752,-0.082845,0.509941,0.254908,-0.821572,0.000000,0.000000,0.000000,-1,0.008558,-0.005875,-0.011749,0.002785,0.002432,0.000924
"2018-06-06 19:21:21.250 +0000",1528312881.249882,0.554791,-0.257195,-0.084087,0.509438,0.254369,-0.822051,0.000000,0.000000,0.000000,-1,0.013801,-0.004767,-0.010682,0.014579,-0.001806,0.000777
"2018-06-06 19:21:21.341 +0000",1528312881.340543,0.554546,-0.257170,-0.084115,0.509241,0.254345,-0.822181,0.000000,0.000000,0.000000,-1,-0.007360,0.000582,0.008744,0.001044,-0.005199,0.002067
"2018-06-06 19:21:21.431 +0000",1528312881.431205,0.554802,-0.256716,-0.082504,0.509512,0.253905,-0.822149,0.000000,0.000000,0.000000,-1,-0.003235,-0.006038,0.019472,0.004267,-0.001708,0.003759
"2018-06-06 19:21:21.522 +0000",1528312881.521866,0.554619,-0.256191,-0.081738,0.509431,0.253398,-0.822355,0.000000,0.000000,0.000000,-1,0.002161,-0.001551,0.000111,0.001952,-0.001277,0.001875
"2018-06-06 19:21:21.613 +0000",1528312881.612526,0.554712,-0.255897,-0.082296,0.509547,0.253113,-0.822371,0.000000,0.000000,0.000000,-1,0.010623,-0.002593,-0.007441,0.001790,-0.002091,0.002196
"2018-06-06 19:21:21.703 +0000",1528312881.703188,0.555039,-0.255709,-0.082750,0.509841,0.252931,-0.822245,0.000000,0.000000,0.000000,-1,0.005292,0.010529,0.001215,0.001176,-0.003541,0.001918
"2018-06-06 19:21:21.794 +0000",1528312881.793849,0.555875,-0.255331,-0.082606,0.510579,0.252566,-0.821900,0.000000,0.000000,0.000000,-1,0.005279,0.007227,0.003356,0.008998,-0.001223,0.003555
"2018-06-06 19:21:21.885 +0000",1528312881.884511,0.556193,-0.254927,-0.082375,0.510894,0.252174,-0.821824,0.000000,0.000000,0.000000,-1,-0.001053,0.003898,0.007664,0.004151,-0.001442,0.003541
"2018-06-06 19:21:21.975 +0000",1528312881.975173,0.556459,-0.254699,-0.082044,0.511143,0.251954,-0.821737,0.000000,0.000000,0.000000,-1,0.000064,0.002839,-0.000947,0.002376,-0.000565,0.001150
"2018-06-06 19:21:22.066 +0000",1528312882.065834,0.556627,-0.254287,-0.082183,0.511336,0.251556,-0.821739,0.000000,0.000000,0.000000,-1,0.003201,0.000643,0.001191,0.005830,-0.001830,0.003852
"2018-06-06 19:21:22.156 +0000",1528312882.156495,0.556161,-0.253828,-0.082924,0.511014,0.251111,-0.822075,0.000000,0.000000,0.000000,-1,0.005382,-0.005897,-0.008514,0.003635,-0.004620,0.002464
"2018-06-06 19:21:22.247 +0000",1528312882.247156,0.555959,-0.253668,-0.083426,0.510868,0.250956,-0.822213,0.000000,0.000000,0.000000,-1,0.002159,0.000645,0.000117,0.002742,-0.004435,0.005059
"2018-06-06 19:21:22.338 +0000",1528312882.337817,0.556171,-0.253637,-0.083151,0.511047,0.250926,-0.822111,0.000000,0.000000,0.000000,-1,-0.004163,0.003912,0.002293,0.005051,-0.002315,0.000837
"2018-06-06 19:21:22.428 +0000",1528312882.428478,0.556230,-0.253661,-0.082900,0.511093,0.250950,-0.822075,0.000000,0.000000,0.000000,-1,-0.002050,-0.000468,0.001200,0.004822,-0.002445,0.002464
"2018-06-06 19:21:22.519 +0000",1528312882.519139,0.556040,-0.253617,-0.082934,0.510942,0.250907,-0.822182,0.000000,0.000000,0.000000,-1,0.000052,-0.001560,0.001192,0.005217,-0.000296,0.003685
"2018-06-06 19:21:22.610 +0000",1528312882.609801,0.555708,-0.253461,-0.083003,0.510690,0.250755,-0.822385,0.000000,0.000000,0.000000,-1,0.002173,-0.004838,-0.000973,0.005912,-0.001930,0.001904
"2018-06-06 19:21:22.700 +0000",1528312882.700462,0.555337,-0.253557,-0.083091,0.510372,0.250848,-0.822554,0.000000,0.000000,0.000000,-1,-0.000997,-0.002661,0.001192,0.000660,-0.002267,0.002378
"2018-06-06 19:21:22.791 +0000",1528312882.791123,0.555514,-0.253541,-0.083060,0.510520,0.250833,-0.822467,0.000000,0.000000,0.000000,-1,0.001115,0.002843,-0.000948,0.002648,-0.002405,0.000872
"2018-06-06 19:21:22.882 +0000",1528312882.881785,0.556196,-0.253443,-0.083102,0.511094,0.250738,-0.822139,0.000000,0.000000,0.000000,-1,0.000027,0.007213,0.003369,0.008804,0.001718,0.001201
"2018-06-06 19:21:22.972 +0000",1528312882.972446,0.556591,-0.253166,-0.083067,0.511455,0.250470,-0.821996,0.000000,0.000000,0.000000,-1,0.005301,0.001748,0.001190,0.002843,-0.001828,0.003576
"2018-06-06 19:21:23.063 +0000",1528312883.063107,0.556719,-0.252687,-0.083298,0.511623,0.250006,-0.822033,0.000000,0.000000,0.000000,-1,0.005317,0.001757,-0.000961,0.001973,-0.002692,0.001934
"2018-06-06 19:21:23.154 +0000",1528312883.153769,0.557089,-0.252461,-0.083759,0.511957,0.249788,-0.821891,0.000000,0.000000,0.000000,-1,0.004278,0.007252,-0.003094,0.005606,-0.004778,0.002662
"2018-06-06 19:21:23.244 +0000",1528312883.244430,0.557306,-0.252589,-0.084244,0.512119,0.249911,-0.821753,0.000000,0.000000,0.000000,-1,-0.001998,-0.002636,-0.005260,0.008785,-0.003345,0.006064
"2018-06-06 19:21:23.335 +0000",1528312883.335092,0.556501,-0.253584,-0.084534,0.511326,0.250875,-0.821953,0.000000,0.000000,0.000000,-1,-0.008262,-0.008125,-0.009564,-0.000156,-0.002767,0.007012
"2018-06-06 19:21:23.426 +0000",1528312883.425753,0.555612,-0.254097,-0.084968,0.510527,0.251371,-0.822298,0.000000,0.000000,0.000000,-1,0.006361,-0.000441,0.000105,0.002825,0.000460,0.001070
"2018-06-06 19:21:23.516 +0000",1528312883.516415,0.556032,-0.253587,-0.083691,0.510939,0.250878,-0.822192,0.000000,0.000000,0.000000,-1,-0.013795,0.009279,0.024919,0.005479,-0.004998,0.000552
"2018-06-06 19:21:23.607 +0000",1528312883.607076,0.557468,-0.253324,-0.081256,0.512154,0.250623,-0.821514,0.000000,0.000000,0.000000,-1,-0.006376,0.000549,0.017347,0.009849,0.005160,0.005077
"2018-06-06 19:21:23.698 +0000",1528312883.697737,0.556808,-0.252861,-0.081685,0.511673,0.250175,-0.821950,0.000000,0.000000,0.000000,-1,0.014878,-0.006945,-0.013917,0.003204,0.000664,0.003453
"2018-06-06 19:21:23.788 +0000",1528312883.788399,0.555833,-0.252786,-0.084102,0.510882,0.250102,-0.822464,0.000000,0.000000,0.000000,-1,0.011776,0.001860,-0.021414,-0.002780,-0.004207,0.001862
"2018-06-06 19:21:23.879 +0000",1528312883.879060,0.555772,-0.252632,-0.085834,0.510852,0.249953,-0.822528,0.000000,0.000000,0.000000,-1,0.007483,0.002896,-0.009569,0.005673,-0.005584,0.004810
"2018-06-06 19:21:23.970 +0000",1528312883.969721,0.555813,-0.252755,-0.086190,0.510870,0.250072,-0.822481,0.000000,0.000000,0.000000,-1,-0.006241,-0.002672,0.000127,0.009089,-0.003444,0.006121
"2018-06-06 19:21:24.060 +0000",1528312884.060383,0.555229,-0.253164,-0.085549,0.510335,0.250469,-0.822693,0.000000,0.000000,0.000000,-1,-0.009428,-0.008192,0.005497,0.003688,-0.004375,0.003875
"2018-06-06 19:21:24.151 +0000",1528312884.151044,0.554845,-0.253518,-0.084704,0.509972,0.250811,-0.822813,0.000000,0.000000,0.000000,-1,-0.003133,-0.000490,0.005505,0.000465,0.003598,0.001570
"2018-06-06 19:21:24.242 +0000",1528312884.241705,0.554838,-0.253073,-0.084267,0.510025,0.250380,-0.822912,0.000000,0.000000,0.000000,-1,0.009502,0.001759,0.001180,0.002746,-0.001616,0.002813
"2018-06-06 19:21:24.332 +0000",1528312884.332366,0.554791,-0.252430,-0.085146,0.510072,0.249757,-0.823072,0.000000,0.000000,0.000000,-1,0.010598,0.006180,-0.005264,0.002959,-0.001070,0.001203
"2018-06-06 19:21:24.423 +0000",1528312884.423028,0.555291,-0.251837,-0.085625,0.510561,0.249183,-0.822942,0.000000,0.000000,0.000000,-1,0.010505,0.008325,0.006574,0.005812,-0.004036,0.003378
"2018-06-06 19:21:24.514 +0000",1528312884.513689,0.555474,-0.250952,-0.085806,0.510828,0.248326,-0.823036,0.000000,0.000000,0.000000,-1,0.004248,0.003939,0.001198,0.009711,-0.006627,0.002373
"2018-06-06 19:21:24.604 +0000",1528312884.604350,0.555889,-0.251146,-0.085366,0.511144,0.248514,-0.822783,0.000000,0.000000,0.000000,-1,-0.009438,0.002785,0.005528,0.001002,-0.002481,0.001220
"2018-06-06 19:21:24.695 +0000",1528312884.695012,0.556418,-0.251270,-0.084773,0.511563,0.248634,-0.822486,0.000000,0.000000,0.000000,-1,-0.001010,0.001724,0.002279,0.002170,0.000115,0.002281
"2018-06-06 19:21:24.786 +0000",1528312884.785673,0.556477,-0.251012,-0.084895,0.511645,0.248384,-0.822511,0.000000,0.000000,0.000000,-1,0.002157,0.002840,0.000123,0.003385,-0.002519,0.003282
"2018-06-06 19:21:24.876 +0000",1528312884.876334,0.556608,-0.251037,-0.084927,0.511749,0.248409,-0.822439,0.000000,0.000000,0.000000,-1,-0.005178,0.001731,-0.002014,0.006500,-0.002666,0.005269
"2018-06-06 19:21:24.967 +0000",1528312884.966996,0.556668,-0.251481,-0.084627,0.511740,0.248839,-0.822314,0.000000,0.000000,0.000000,-1,-0.008350,-0.002683,0.001207,0.005197,-0.002104,0.003543
"2018-06-06 19:21:25.058 +0000",1528312885.057657,0.556338,-0.251972,-0.084543,0.511404,0.249314,-0.822379,0.000000,0.000000,0.000000,-1,-0.001996,-0.004833,-0.005268,0.002176,-0.002640,0.003486
"2018-06-06 19:21:25.148 +0000",1528312885.148318,0.556107,-0.252152,-0.085162,0.511191,0.249488,-0.822459,0.000000,0.000000,0.000000,-1,-0.000937,0.002863,-0.007399,0.003488,-0.000632,-0.000402
"2018-06-06 19:21:25.239 +0000",1528312885.238979,0.556642,-0.252116,-0.085150,0.511635,0.249453,-0.822193,0.000000,0.000000,0.000000,-1,-0.001043,0.001706,0.006581,0.006736,-0.005725,0.001347
"2018-06-06 19:21:25.330 +0000",1528312885.329641,0.557283,-0.252105,-0.084065,0.512164,0.249443,-0.821868,0.000000,0.000000,0.000000,-1,-0.007389,0.004959,0.011984,0.014478,-0.001793,-0.003953
"2018-06-06 19:21:25.420 +0000",1528312885.420302,0.557206,-0.252385,-0.082518,0.512064,0.249715,-0.821848,0.000000,0.000000,0.000000,-1,-0.009398,-0.012568,0.002258,0.004416,0.002284,0.003198
"2018-06-06 19:21:25.511 +0000",1528312885.510963,0.556619,-0.252120,-0.082782,0.511616,0.249458,-0.822204,0.000000,0.000000,0.000000,-1,0.008471,-0.000429,-0.000974,-0.001088,-0.000999,0.000534
"2018-06-06 19:21:25.602 +0000",1528312885.601625,0.556642,-0.252026,-0.083474,0.511647,0.249366,-0.822212,0.000000,0.000000,0.000000,-1,-0.002007,0.007244,-0.005231,0.006419,-0.006645,0.006279
"2018-06-06 19:21:25.692 +0000",1528312885.692286,0.556877,-0.252693,-0.083406,0.511753,0.250012,-0.821951,0.000000,0.000000,0.000000,-1,-0.005191,-0.001570,0.000129,0.001233,0.001346,0.004720
"2018-06-06 19:21:25.783 +0000",1528312885.782947,0.557080,-0.252759,-0.083110,0.511910,0.250076,-0.821833,0.000000,0.000000,0.000000,-1,0.003143,0.009400,0.007672,-0.005654,-0.001434,0.002634
"2018-06-06 19:21:25.874 +0000",1528312885.873608,0.557939,-0.252461,-0.083098,0.512656,0.249788,-0.821456,0.000000,0.000000,0.000000,-1,-0.000984,0.018215,-0.003050,0.005334,-0.003145,0.003158
"2018-06-06 19:21:25.964 +0000",1528312885.964270,0.558943,-0.252757,-0.083499,0.513441,0.250074,-0.820878,0.000000,0.000000,0.000000,-1,-0.002043,0.009421,-0.000922,0.010042,-0.001539,0.004746
"2018-06-06 19:21:26.055 +0000",1528312886.054931,0.558630,-0.252676,-0.083607,0.513195,0.249996,-0.821056,0.000000,0.000000,0.000000,-1,-0.002055,-0.011454,0.003320,0.007512,-0.001568,0.007076
"2018-06-06 19:21:26.146 +0000",1528312886.145592,0.558251,-0.252633,-0.083095,0.512890,0.249955,-0.821259,0.000000,0.000000,0.000000,-1,-0.001034,0.001713,0.005508,-0.006511,-0.001435,-0.000076
"2018-06-06 19:21:26.236 +0000",1528312886.236254,0.558767,-0.252263,-0.083239,0.513362,0.249596,-0.821073,0.000000,0.000000,0.000000,-1,0.002191,0.010549,-0.005231,0.003163,-0.004204,0.004011
"2018-06-06 19:21:26.327 +0000",1528312886.326915,0.559646,-0.252487,-0.083434,0.514054,0.249813,-0.820574,0.000000,0.000000,0.000000,-1,-0.004140,0.006122,-0.000926,0.010055,-0.002667,0.002108
"2018-06-06 19:21:26.418 +0000",1528312886.417576,0.559731,-0.252611,-0.083061,0.514107,0.249933,-0.820504,0.000000,0.000000,0.000000,-1,0.000033,-0.007062,0.004404,0.005684,-0.000208,0.002740
"2018-06-06 19:21:26.508 +0000",1528312886.508237,0.559657,-0.252494,-0.083013,0.514062,0.249820,-0.820567,0.000000,0.000000,0.000000,-1,0.001123,0.002848,-0.002024,0.004203,-0.002994,0.000834
"2018-06-06 19:21:26.599 +0000",1528312886.598899,0.559846,-0.252683,-0.082967,0.514192,0.250003,-0.820430,0.000000,0.000000,0.000000,-1,-0.005188,0.003924,-0.000931,0.005919,-0.001925,0.003825
"2018-06-06 19:21:26.690 +0000",1528312886.689560,0.559878,-0.252762,-0.082766,0.514208,0.250080,-0.820396,0.000000,0.000000,0.000000,-1,-0.001015,-0.001571,0.003347,0.001875,-0.001850,0.004219
"2018-06-06 19:21:26.780 +0000",1528312886.780221,0.559999,-0.252848,-0.082553,0.514296,0.250163,-0.820316,0.000000,0.000000,0.000000,-1,-0.002035,0.001737,-0.000944,0.003603,-0.004054,0.002567
"2018-06-06 19:21:26.871 +0000",1528312886.870883,0.560496,-0.253082,-0.082409,0.514672,0.250389,-0.820011,0.000000,0.000000,0.000000,-1,-0.001014,0.006117,0.002293,0.002219,0.000404,0.002902
"2018-06-06 19:21:26.962 +0000",1528312886.961544,0.560654,-0.252817,-0.081959,0.514837,0.250133,-0.819986,0.000000,0.000000,0.000000,-1,0.000030,-0.003769,0.004413,0.006297,-0.000575,0.005227
"2018-06-06 19:21:27.052 +0000",1528312887.052205,0.560401,-0.252724,-0.081757,0.514642,0.250043,-0.820135,0.000000,0.000000,0.000000,-1,-0.000967,0.000651,-0.003101,0.002707,-0.005307,0.002630
"2018-06-06 19:21:27.143 +0000",1528312887.142866,0.560644,-0.253097,-0.081713,0.514791,0.250404,-0.819931,0.000000,0.000000,0.000000,-1,-0.005204,0.002817,0.001218,0.003702,-0.001426,0.002640
"2018-06-06 19:21:27.234 +0000",1528312887.233528,0.560769,-0.253138,-0.081678,0.514888,0.250443,-0.819858,0.000000,0.000000,0.000000,-1,-0.002040,-0.001561,0.000122,0.006428,-0.001450,0.004291
"2018-06-06 19:21:27.324 +0000",1528312887.324189,0.560450,-0.253173,-0.081747,0.514622,0.250477,-0.820015,0.000000,0.000000,0.000000,-1,0.001141,-0.007027,-0.003128,0.003826,-0.002369,0.001137
"2018-06-06 19:21:27.415 +0000",1528312887.414850,0.560503,-0.253358,-0.081831,0.514641,0.250656,-0.819949,0.000000,0.000000,0.000000,-1,-0.000971,0.003943,-0.003093,0.003838,0.000153,0.002429
"2018-06-06 19:21:27.506 +0000",1528312887.505511,0.560882,-0.253249,-0.081781,0.514966,0.250551,-0.819776,0.000000,0.000000,0.000000,-1,0.003202,-0.000454,0.001187,0.003634,-0.003175,0.001829
"2018-06-06 19:21:27.596 +0000",1528312887.596173,0.561308,-0.253254,-0.081759,0.515315,0.250556,-0.819556,0.000000,0.000000,0.000000,-1,0.001122,0.003944,-0.002022,0.007772,-0.003119,0.007834
"2018-06-06 19:21:27.687 +0000",1528312887.686834,0.561246,-0.253321,-0.081797,0.515255,0.250620,-0.819574,0.000000,0.000000,0.000000,-1,0.000045,-0.002663,0.002264,0.001102,0.001852,0.002603
"2018-06-06 19:21:27.777 +0000",1528312887.777495,0.561269,-0.252835,-0.081513,0.515338,0.250150,-0.819665,0.000000,0.000000,0.000000,-1,0.007379,-0.000456,0.004405,0.004681,-0.002728,0.002496
"2018-06-06 19:21:27.868 +0000",1528312887.868157,0.561221,-0.252284,-0.081491,0.515372,0.249617,-0.819806,0.000000,0.000000,0.000000,-1,0.001101,-0.000460,0.001192,0.003411,-0.002043,0.004789
"2018-06-06 19:21:27.959 +0000",1528312887.958818,0.561076,-0.252002,-0.081349,0.515291,0.249343,-0.819940,0.000000,0.000000,0.000000,-1,0.002137,-0.002662,0.003335,0.004851,-0.001205,0.002130
"2018-06-06 19:21:28.049 +0000",1528312888.049479,0.560806,-0.251480,-0.080982,0.515139,0.248837,-0.820190,0.000000,0.000000,0.000000,-1,0.005288,-0.002653,0.003328,0.005934,-0.001889,0.002944
"2018-06-06 19:21:28.140 +0000",1528312888.140140,0.560261,-0.251263,-0.081078,0.514721,0.248628,-0.820516,0.000000,0.000000,0.000000,-1,0.001140,-0.005931,-0.003126,0.005131,-0.003328,0.002889
"2018-06-06 19:21:28.231 +0000",1528312888.230802,0.559593,-0.251359,-0.081409,0.514160,0.248720,-0.820839,0.000000,0.000000,0.000000,-1,-0.003061,-0.007040,-0.003120,0.005066,-0.002154,0.002617
"2018-06-06 19:21:28.321 +0000",1528312888.321462,0.559219,-0.251565,-0.081399,0.513825,0.248920,-0.820988,0.000000,0.000000,0.000000,-1,-0.003091,-0.001565,0.000123,0.005691,-0.000507,0.002461
"2018-06-06 19:21:28.412 +0000",1528312888.412123,0.558721,-0.251856,-0.081471,0.513378,0.249201,-0.821183,0.000000,0.000000,0.000000,-1,0.000115,-0.005916,-0.006347,0.003803,-0.001536,0.003464
"2018-06-06 19:21:28.503 +0000",1528312888.502784,0.558195,-0.252067,-0.081934,0.512918,0.249406,-0.821408,0.000000,0.000000,0.000000,-1,-0.000974,-0.000448,-0.002026,0.001516,-0.004640,0.002301
"2018-06-06 19:21:28.593 +0000",1528312888.593446,0.558035,-0.252422,-0.081932,0.512740,0.249750,-0.821415,0.000000,0.000000,0.000000,-1,-0.005172,-0.003753,-0.002026,0.006074,-0.002160,0.002262
"2018-06-06 19:21:28.684 +0000",1528312888.684107,0.557796,-0.252556,-0.081949,0.512526,0.249880,-0.821509,0.000000,0.000000,0.000000,-1,-0.000996,-0.003755,0.001191,0.002229,0.000593,0.001929
"2018-06-06 19:21:28.775 +0000",1528312888.774768,0.557742,-0.252475,-0.082175,0.512492,0.249802,-0.821554,0.000000,0.000000,0.000000,-1,0.002175,0.001756,-0.002027,0.005041,-0.002228,0.002462
"2018-06-06 19:21:28.865 +0000",1528312888.865430,0.557586,-0.252538,-0.082424,0.512356,0.249862,-0.821620,0.000000,0.000000,0.000000,-1,0.000087,-0.002637,-0.003111,0.005207,-0.002151,0.003383
"2018-06-06 19:21:28.956 +0000",1528312888.956091,0.557514,-0.252532,-0.082306,0.512298,0.249857,-0.821658,0.000000,0.000000,0.000000,-1,-0.001013,-0.002667,0.003346,0.002931,-0.001596,0.002444
"2018-06-06 19:21:29.047 +0000",1528312889.046752,0.557408,-0.252305,-0.082314,0.512240,0.249637,-0.821761,0.000000,0.000000,0.000000,-1,0.001095,-0.001558,0.002268,0.002760,-0.003131,0.001616
"2018-06-06 19:21:29.137 +0000",1528312889.137414,0.557608,-0.252213,-0.082050,0.512417,0.249547,-0.821678,0.000000,0.000000,0.000000,-1,0.001068,0.000623,0.005502,0.005406,-0.001333,0.004570
"2018-06-06 19:21:29.228 +0000",1528312889.228076,0.557681,-0.252043,-0.081768,0.512499,0.249383,-0.821676,0.000000,0.000000,0.000000,-1,0.001061,-0.000479,0.006574,0.001951,-0.001763,0.002005
"2018-06-06 19:21:29.319 +0000",1528312889.318738,0.557839,-0.251679,-0.081442,0.512677,0.249030,-0.821672,0.000000,0.000000,0.000000,-1,0.003193,0.000643,0.002270,0.004322,-0.000755,0.003939
"2018-06-06 19:21:29.409 +0000",1528312889.409399,0.557785,-0.251421,-0.081519,0.512667,0.248780,-0.821754,0.000000,0.000000,0.000000,-1,0.001127,-0.000443,-0.002031,0.004988,-0.004151,0.003380
"2018-06-06 19:21:29.500 +0000",1528312889.500060,0.557750,-0.251519,-0.081346,0.512625,0.248875,-0.821752,0.000000,0.000000,0.000000,-1,-0.005210,0.000681,0.002288,0.003061,-0.002339,0.004262
"2018-06-06 19:21:29.591 +0000",1528312889.590722,0.557789,-0.251568,-0.081264,0.512651,0.248923,-0.821721,0.000000,0.000000,0.000000,-1,0.004271,-0.002573,-0.000971,0.004134,0.000375,0.003652
"2018-06-06 19:21:29.681 +0000",1528312889.681382,0.557601,-0.251481,-0.081501,0.512507,0.248839,-0.821836,0.000000,0.000000,0.000000,-1,0.000066,0.001807,-0.000948,0.003423,-0.002821,0.001676
"2018-06-06 19:21:29.772 +0000",1528312889.772043,0.557578,-0.251618,-0.081575,0.512470,0.248971,-0.821819,0.000000,0.000000,0.000000,-1,-0.000968,0.001813,-0.003097,0.004055,-0.000436,0.002651
"2018-06-06 19:21:29.863 +0000",1528312889.862705,0.557640,-0.251676,-0.081555,0.512514,0.249028,-0.821775,0.000000,0.000000,0.000000,-1,-0.002036,0.002899,-0.000940,0.006011,-0.000615,0.002302
"2018-06-06 19:21:29.953 +0000",1528312889.953366,0.557723,-0.251768,-0.081470,0.512569,0.249117,-0.821713,0.000000,0.000000,0.000000,-1,-0.002035,0.001801,-0.000943,0.003056,-0.002428,0.004117
"2018-06-06 19:21:30.044 +0000",1528312890.044027,0.557895,-0.251672,-0.081358,0.512724,0.249024,-0.821645,0.000000,0.000000,0.000000,-1,0.000018,-0.000416,0.005499,0.003710,-0.001801,0.002935
"2018-06-06 19:21:30.135 +0000",1528312890.134688,0.558054,-0.251580,-0.081214,0.512867,0.248935,-0.821583,0.000000,0.000000,0.000000,-1,0.001093,-0.000400,0.002270,0.004895,-0.002399,0.004017
"2018-06-06 19:21:30.225 +0000",1528312890.225350,0.558072,-0.251657,-0.081267,0.512871,0.249010,-0.821557,0.000000,0.000000,0.000000,-1,-0.002041,-0.000399,0.000126,0.004356,-0.002611,0.001840
"2018-06-06 19:21:30.316 +0000",1528312890.316011,0.558052,-0.251789,-0.081180,0.512837,0.249137,-0.821540,0.000000,0.000000,0.000000,-1,-0.002043,0.001796,0.000132,0.003856,-0.002113,0.003501
"2018-06-06 19:21:30.407 +0000",1528312890.406672,0.557991,-0.251801,-0.081343,0.512785,0.249148,-0.821568,0.000000,0.000000,0.000000,-1,0.003220,-0.001478,-0.000965,0.003862,-0.001849,0.003041
"2018-06-06 19:21:30.497 +0000",1528312890.497333,0.557984,-0.251823,-0.081343,0.512777,0.249169,-0.821567,0.000000,0.000000,0.000000,-1,-0.002831,-0.001764,0.003408,0.002604,-0.002496,0.001957
"2018-06-06 19:21:30.588 +0000",1528312890.587995,0.558152,-0.251874,-0.081342,0.512908,0.249219,-0.821470,0.000000,0.000000,0.000000,-1,0.001400,0.001559,-0.000894,0.006028,-0.000989,0.004500
"2018-06-06 19:21:30.679 +0000",1528312890.678656,0.558024,-0.251912,-0.081336,0.512798,0.249256,-0.821528,0.000000,0.000000,0.000000,-1,-0.002799,-0.000648,-0.000891,0.002949,-0.000888,0.002742
"2018-06-06 19:21:30.769 +0000",1528312890.769317,0.557902,-0.251663,-0.081612,0.512731,0.249015,-0.821643,0.000000,0.000000,0.000000,-1,0.003516,0.002672,-0.003047,0.002619,-0.000144,0.002566
"2018-06-06 19:21:30.860 +0000",1528312890.859979,0.558053,-0.251274,-0.081825,0.512906,0.248638,-0.821648,0.000000,0.000000,0.000000,-1,0.000324,0.002641,0.002338,0.004001,-0.002713,0.004128
"2018-06-06 19:21:30.951 +0000",1528312890.950640,0.558201,-0.251208,-0.081564,0.513036,0.248574,-0.821586,0.000000,0.000000,0.000000,-1,-0.002806,-0.001750,0.000181,0.007304,-0.001672,0.005195
"2018-06-06 19:21:31.041 +0000",1528312891.041301,0.558022,-0.251249,-0.081442,0.512884,0.248614,-0.821669,0.000000,0.000000,0.000000,-1,0.000345,-0.001741,0.000174,0.003672,-0.001971,0.002440
"2018-06-06 19:21:31.132 +0000",1528312891.131962,0.557731,-0.251351,-0.081667,0.512631,0.248713,-0.821797,0.000000,0.000000,0.000000,-1,-0.000662,-0.003917,-0.005208,0.005771,-0.000284,0.003697
"2018-06-06 19:21:31.223 +0000",1528312891.222624,0.557132,-0.251555,-0.082190,0.512112,0.248911,-0.822061,0.000000,0.000000,0.000000,-1,-0.000667,-0.007215,-0.004142,0.004704,-0.001642,0.003533
"2018-06-06 19:21:31.313 +0000",1528312891.313285,0.556677,-0.251822,-0.082287,0.511703,0.249169,-0.822237,0.000000,0.000000,0.000000,-1,-0.003857,-0.001753,0.000184,0.004167,-0.002464,0.002230
"2018-06-06 19:21:31.404 +0000",1528312891.403946,0.556478,-0.252108,-0.082340,0.511502,0.249445,-0.822278,0.000000,0.000000,0.000000,-1,-0.002798,-0.001745,-0.000894,0.005222,0.001241,0.004361
"2018-06-06 19:21:31.495 +0000",1528312891.494607,0.556076,-0.252320,-0.082432,0.511143,0.249651,-0.822439,0.000000,0.000000,0.000000,-1,-0.002749,-0.003950,-0.001869,0.003017,-0.002139,0.003332
"2018-06-06 19:21:31.585 +0000",1528312891.585269,0.555824,-0.252465,-0.082903,0.510916,0.249791,-0.822537,0.000000,0.000000,0.000000,-1,0.001451,-0.001743,-0.001872,0.001626,-0.002568,0.002072
"2018-06-06 19:21:31.676 +0000",1528312891.675931,0.555988,-0.252558,-0.083041,0.511039,0.249882,-0.822433,0.000000,0.000000,0.000000,-1,0.001440,0.000448,-0.000790,0.006020,-0.000950,0.005035
"2018-06-06 19:21:31.767 +0000",1528312891.766592,0.555953,-0.252462,-0.083053,0.511023,0.249789,-0.822472,0.000000,0.000000,0.000000,-1,0.003502,-0.001764,0.004577,0.006250,-0.000445,0.004509
"2018-06-06 19:21:31.857 +0000",1528312891.857254,0.555756,-0.252061,-0.082839,0.510914,0.249400,-0.822657,0.000000,0.000000,0.000000,-1,0.002438,-0.005069,0.006721,0.003445,-0.002605,0.003092
"2018-06-06 19:21:31.948 +0000",1528312891.947915,0.555733,-0.251706,-0.082477,0.510941,0.249057,-0.822744,0.000000,0.000000,0.000000,-1,-0.000719,0.001509,0.006748,0.003783,-0.001406,0.003454
"2018-06-06 19:21:32.039 +0000",1528312892.038575,0.555758,-0.251433,-0.082108,0.510997,0.248792,-0.822789,0.000000,0.000000,0.000000,-1,-0.001750,-0.001778,0.004589,0.006184,-0.001875,0.003163
"2018-06-06 19:21:32.129 +0000",1528312892.129236,0.555674,-0.251270,-0.081694,0.510950,0.248634,-0.822866,0.000000,0.000000,0.000000,-1,-0.002798,-0.003977,0.004585,0.004873,-0.000603,0.003393
"2018-06-06 19:21:32.220 +0000",1528312892.219898,0.555561,-0.251238,-0.081486,0.510861,0.248603,-0.822931,0.000000,0.000000,0.000000,-1,0.000382,0.000441,0.000288,0.003101,-0.001228,0.003702
"2018-06-06 19:21:32.311 +0000",1528312892.310559,0.555629,-0.251248,-0.081449,0.510916,0.248613,-0.822894,0.000000,0.000000,0.000000,-1,-0.001715,0.004831,-0.000770,0.003427,-0.003603,0.004214
"2018-06-06 19:21:32.401 +0000",1528312892.401220,0.555784,-0.251232,-0.081420,0.511046,0.248597,-0.822818,0.000000,0.000000,0.000000,-1,-0.000685,0.000429,0.002442,0.002809,-0.001603,0.003024
"2018-06-06 19:21:32.492 +0000",1528312892.491880,0.556043,-0.251117,-0.081086,0.511274,0.248486,-0.822710,0.000000,0.000000,0.000000,-1,0.000331,-0.000679,0.005664,0.005465,-0.000867,0.003267
"2018-06-06 19:21:32.583 +0000",1528312892.582542,0.556037,-0.251009,-0.081192,0.511283,0.248382,-0.822736,0.000000,0.000000,0.000000,-1,0.001441,-0.002840,-0.001874,0.004769,-0.001479,0.003598
"2018-06-06 19:21:32.673 +0000",1528312892.673203,0.556068,-0.250941,-0.081257,0.511318,0.248315,-0.822734,0.000000,0.000000,0.000000,-1,-0.001746,0.000427,0.002445,0.004353,-0.001550,0.003261
"2018-06-06 19:21:32.764 +0000",1528312892.763865,0.556153,-0.251029,-0.081287,0.511376,0.248401,-0.822672,0.000000,0.000000,0.000000,-1,0.000356,-0.001763,0.002434,0.006980,-0.000385,0.003916
"2018-06-06 19:21:32.855 +0000",1528312892.854527,0.556043,-0.251078,-0.081416,0.511279,0.248448,-0.822719,0.000000,0.000000,0.000000,-1,0.001421,0.000445,0.000287,0.004819,-0.001698,0.003596
"2018-06-06 19:21:32.945 +0000",1528312892.945188,0.555954,-0.251069,-0.081424,0.511207,0.248439,-0.822766,0.000000,0.000000,0.000000,-1,-0.000689,0.001532,0.001370,0.004449,-0.001827,0.003064
"2018-06-06 19:21:33.036 +0000",1528312893.035849,0.556039,-0.251103,-0.081456,0.511273,0.248473,-0.822715,0.000000,0.000000,0.000000,-1,0.001432,-0.001746,-0.000796,0.006168,-0.000701,0.004630
"2018-06-06 19:21:33.127 +0000",1528312893.126510,0.555902,-0.251172,-0.081598,0.511150,0.248540,-0.822771,0.000000,0.000000,0.000000,-1,-0.000662,-0.000650,-0.001863,0.003971,-0.001714,0.004076
"2018-06-06 19:21:33.217 +0000",1528312893.217172,0.555947,-0.251219,-0.081398,0.511181,0.248585,-0.822738,0.000000,0.000000,0.000000,-1,-0.001730,0.000436,0.000294,0.003834,-0.003422,0.004760
"2018-06-06 19:21:33.308 +0000",1528312893.307833,0.555982,-0.251177,-0.081387,0.511215,0.248544,-0.822729,0.000000,0.000000,0.000000,-1,0.000353,0.001530,0.002443,0.005325,0.000479,0.003622
"2018-06-06 19:21:33.398 +0000",1528312893.398494,0.555920,-0.250920,-0.081174,0.511198,0.248296,-0.822815,0.000000,0.000000,0.000000,-1,0.000359,-0.003958,0.002427,0.004778,-0.001027,0.004120
"2018-06-06 19:21:33.489 +0000",1528312893.489156,0.555860,-0.250811,-0.081145,0.511163,0.248189,-0.822868,0.000000,0.000000,0.000000,-1,-0.001753,-0.000644,0.000469,0.003623,-0.002797,0.004097
"2018-06-06 19:21:33.580 +0000",1528312893.579817,0.555968,-0.250990,-0.081201,0.511229,0.248363,-0.822775,0.000000,0.000000,0.000000,-1,-0.001737,0.000463,-0.001680,0.006090,-0.001384,0.003897
"2018-06-06 19:21:33.670 +0000",1528312893.670478,0.555817,-0.251253,-0.081363,0.511070,0.248618,-0.822797,0.000000,0.000000,0.000000,-1,0.001425,-0.002817,-0.002772,-0.000038,-0.000174,0.008069
"2018-06-06 19:21:33.761 +0000",1528312893.761139,0.555582,-0.251270,-0.081692,0.510875,0.248634,-0.822913,0.000000,0.000000,0.000000,-1,-0.001753,0.008142,-0.000582,0.002400,-0.005882,0.000022
"2018-06-06 19:21:33.852 +0000",1528312893.851801,0.555835,-0.251604,-0.081741,0.511039,0.248958,-0.822713,0.000000,0.000000,0.000000,-1,0.001435,-0.005008,-0.003854,0.009362,0.004033,0.008505
"2018-06-06 19:21:33.942 +0000",1528312893.942462,0.555303,-0.251705,-0.082207,0.510588,0.249056,-0.822964,0.000000,0.000000,0.000000,-1,0.000389,-0.000616,-0.004915,-0.000197,-0.001619,0.000393
"2018-06-06 19:21:34.033 +0000",1528312894.033123,0.555355,-0.251807,-0.082527,0.510617,0.249154,-0.822916,0.000000,0.000000,0.000000,-1,0.001429,0.001578,-0.003835,0.005374,-0.004083,0.004465
"2018-06-06 19:21:34.124 +0000",1528312894.123785,0.555247,-0.252000,-0.082924,0.510503,0.249341,-0.822930,0.000000,0.000000,0.000000,-1,0.000385,-0.005011,-0.003852,0.006877,-0.000837,0.002221
"2018-06-06 19:21:34.214 +0000",1528312894.214446,0.555126,-0.252278,-0.082814,0.510367,0.249611,-0.822933,0.000000,0.000000,0.000000,-1,0.000351,-0.003932,0.000454,0.006647,-0.000007,0.004513
"2018-06-06 19:21:34.305 +0000",1528312894.305106,0.554992,-0.252152,-0.082733,0.510274,0.249488,-0.823028,0.000000,0.000000,0.000000,-1,0.003475,-0.001741,0.003680,0.004726,0.001473,0.002838
"2018-06-06 19:21:34.396 +0000",1528312894.395767,0.554814,-0.251736,-0.082433,0.510181,0.249086,-0.823207,0.000000,0.000000,0.000000,-1,0.002426,-0.002842,0.003679,0.005917,-0.001832,0.005000
"2018-06-06 19:21:34.486 +0000",1528312894.486429,0.554861,-0.251404,-0.081984,0.510264,0.248764,-0.823253,0.000000,0.000000,0.000000,-1,-0.000752,0.000441,0.005847,0.003149,-0.001419,0.002239
"2018-06-06 19:21:34.577 +0000",1528312894.577090,0.555097,-0.251084,-0.081356,0.510500,0.248454,-0.823200,0.000000,0.000000,0.000000,-1,0.000298,0.000444,0.005844,0.006056,-0.001384,0.004780
"2018-06-06 19:21:34.668 +0000",1528312894.667751,0.555185,-0.250914,-0.080941,0.510594,0.248290,-0.823192,0.000000,0.000000,0.000000,-1,-0.000734,-0.000647,0.003692,0.005031,-0.000090,0.004054
"2018-06-06 19:21:34.758 +0000",1528312894.758413,0.555206,-0.250732,-0.080759,0.510636,0.248113,-0.823219,0.000000,0.000000,0.000000,-1,0.001372,0.001559,0.002618,0.003876,-0.001516,0.003364
"2018-06-06 19:21:34.849 +0000",1528312894.849074,0.555400,-0.250718,-0.080640,0.510797,0.248100,-0.823123,0.000000,0.000000,0.000000,-1,-0.000712,0.001562,0.000472,0.006232,-0.001960,0.005618
"2018-06-06 19:21:34.940 +0000",1528312894.939735,0.555356,-0.250742,-0.080449,0.510757,0.248123,-0.823141,0.000000,0.000000,0.000000,-1,-0.001767,-0.001739,0.001540,0.005554,-0.001068,0.004003
"2018-06-06 19:21:35.030 +0000",1528312895.030397,0.555339,-0.250900,-0.080243,0.510723,0.248276,-0.823116,0.000000,0.000000,0.000000,-1,-0.003862,0.000455,0.000476,0.003544,-0.001221,0.002910
"2018-06-06 19:21:35.121 +0000",1528312895.121058,0.555513,-0.251005,-0.080008,0.510852,0.248378,-0.823005,0.000000,0.000000,0.000000,-1,-0.000701,-0.000629,-0.000610,0.005078,-0.000331,0.005195
"2018-06-06 19:21:35.212 +0000",1528312895.211719,0.555383,-0.250959,-0.080121,0.510752,0.248333,-0.823081,0.000000,0.000000,0.000000,-1,0.000327,-0.003933,0.002605,0.003454,-0.000469,0.003775
"2018-06-06 19:21:35.302 +0000",1528312895.302381,0.555438,-0.250956,-0.079948,0.510797,0.248330,-0.823054,0.000000,0.000000,0.000000,-1,0.000340,0.000467,0.000466,0.003363,-0.000100,0.005259
"2018-06-06 19:21:35.393 +0000",1528312895.393043,0.555472,-0.250947,-0.079898,0.510827,0.248321,-0.823038,0.000000,0.000000,0.000000,-1,-0.003852,-0.000638,-0.000603,0.006141,0.000153,0.003259
"2018-06-06 19:21:35.484 +0000",1528312895.483704,0.555494,-0.250999,-0.079961,0.510838,0.248371,-0.823016,0.000000,0.000000,0.000000,-1,0.000638,-0.001681,-0.001017,0.005566,0.001064,0.002978
"2018-06-06 19:21:35.574 +0000",1528312895.574365,0.555343,-0.250849,-0.080345,0.510733,0.248226,-0.823125,0.000000,0.000000,0.000000,-1,0.005897,-0.000564,-0.002102,0.003260,-0.002331,0.003438
"2018-06-06 19:21:35.665 +0000",1528312895.665027,0.555407,-0.250751,-0.080813,0.510799,0.248132,-0.823112,0.000000,0.000000,0.000000,-1,0.002752,0.001627,-0.003164,0.008122,-0.003320,0.005333
"2018-06-06 19:21:35.756 +0000",1528312895.755688,0.555334,-0.250974,-0.080454,0.510709,0.248348,-0.823103,0.000000,0.000000,0.000000,-1,-0.006770,-0.003929,0.006523,0.005191,0.000508,0.003309
"2018-06-06 19:21:35.846 +0000",1528312895.846349,0.555272,-0.250811,-0.079843,0.510679,0.248190,-0.823169,0.000000,0.000000,0.000000,-1,-0.001509,0.003779,0.004382,0.002138,-0.000127,0.002765
"2018-06-06 19:21:35.937 +0000",1528312895.937010,0.555477,-0.250811,-0.079932,0.510848,0.248189,-0.823064,0.000000,0.000000,0.000000,-1,0.003810,0.002732,-0.004239,0.003877,-0.000509,0.004476
"2018-06-06 19:21:36.028 +0000",1528312896.027672,0.555572,-0.250861,-0.080186,0.510920,0.248238,-0.823005,0.000000,0.000000,0.000000,-1,-0.000425,0.002702,0.000073,0.007284,-0.000175,0.006035
"2018-06-06 19:21:36.118 +0000",1528312896.118333,0.555497,-0.250922,-0.080220,0.510851,0.248298,-0.823030,0.000000,0.000000,0.000000,-1,-0.001473,0.000504,0.000069,0.003752,0.000390,0.002748
"2018-06-06 19:21:36.209 +0000",1528312896.208993,0.555564,-0.250771,-0.080272,0.510925,0.248151,-0.823028,0.000000,0.000000,0.000000,-1,0.000618,0.001603,0.001143,0.004547,-0.001050,0.004104
"2018-06-06 19:21:36.300 +0000",1528312896.299655,0.555680,-0.250785,-0.080530,0.511019,0.248164,-0.822966,0.000000,0.000000,0.000000,-1,0.000643,0.001617,-0.002084,0.005812,0.000096,0.004836
"2018-06-06 19:21:36.390 +0000",1528312896.390316,0.555531,-0.250902,-0.080818,0.510881,0.248278,-0.823017,0.000000,0.000000,0.000000,-1,-0.000395,-0.002773,-0.003170,0.007171,-0.001833,0.003041
"2018-06-06 19:21:36.481 +0000",1528312896.480978,0.555298,-0.251246,-0.081000,0.510644,0.248611,-0.823064,0.000000,0.000000,0.000000,-1,0.000715,-0.004949,-0.005350,0.005668,0.000443,0.004506
"2018-06-06 19:21:36.572 +0000",1528312896.571640,0.555051,-0.251232,-0.081481,0.510443,0.248597,-0.823193,0.000000,0.000000,0.000000,-1,0.001748,-0.003857,-0.003198,0.004374,-0.000108,0.003750
"2018-06-06 19:21:36.662 +0000",1528312896.662300,0.554938,-0.251279,-0.081767,0.510343,0.248643,-0.823241,0.000000,0.000000,0.000000,-1,-0.001401,0.002725,-0.004247,0.005037,-0.001588,0.004042
"2018-06-06 19:21:36.753 +0000",1528312896.752961,0.554985,-0.251518,-0.082031,0.510351,0.248875,-0.823166,0.000000,0.000000,0.000000,-1,-0.000348,-0.000565,-0.004259,0.004572,-0.000568,0.004440
"2018-06-06 19:21:36.844 +0000",1528312896.843622,0.554935,-0.251600,-0.082285,0.510299,0.248954,-0.823174,0.000000,0.000000,0.000000,-1,0.000673,-0.003874,0.000032,0.007035,-0.000388,0.004403
"2018-06-06 19:21:36.934 +0000",1528312896.934284,0.554727,-0.251548,-0.082185,0.510134,0.248904,-0.823291,0.000000,0.000000,0.000000,-1,0.000649,-0.004985,0.003255,0.004545,0.000348,0.006153
"2018-06-06 19:21:37.025 +0000",1528312897.024945,0.554531,-0.251092,-0.081838,0.510033,0.248462,-0.823488,0.000000,0.000000,0.000000,-1,0.004825,-0.003889,0.006476,0.002540,0.002332,0.002031
"2018-06-06 19:21:37.116 +0000",1528312897.115606,0.554588,-0.250579,-0.081333,0.510147,0.247965,-0.823567,0.000000,0.000000,0.000000,-1,0.001679,-0.000600,0.005417,0.005936,-0.001230,0.006764
"2018-06-06 19:21:37.206 +0000",1528312897.206268,0.554627,-0.250242,-0.081074,0.510223,0.247638,-0.823618,0.000000,0.000000,0.000000,-1,0.000651,0.001606,0.002199,0.005540,0.000226,0.003718
"2018-06-06 19:21:37.297 +0000",1528312897.296929,0.554745,-0.250067,-0.080801,0.510343,0.247469,-0.823595,0.000000,0.000000,0.000000,-1,0.000662,-0.000585,0.001117,0.006106,0.000181,0.005342
"2018-06-06 19:21:37.388 +0000",1528312897.387591,0.554750,-0.249959,-0.080743,0.510361,0.247364,-0.823615,0.000000,0.000000,0.000000,-1,0.001711,0.000516,0.001118,0.005340,-0.000538,0.004264
"2018-06-06 19:21:37.478 +0000",1528312897.478253,0.554715,-0.249888,-0.080816,0.510342,0.247296,-0.823647,0.000000,0.000000,0.000000,-1,0.000571,-0.000543,0.001530,0.004856,-0.000393,0.005013
"2018-06-06 19:21:37.569 +0000",1528312897.568914,0.554668,-0.249779,-0.080833,0.510317,0.247190,-0.823694,0.000000,0.000000,0.000000,-1,-0.000467,0.003854,-0.000606,0.003706,0.000384,0.002726
"2018-06-06 19:21:37.660 +0000",1528312897.659575,0.554969,-0.249776,-0.080834,0.510565,0.247187,-0.823542,0.000000,0.000000,0.000000,-1,-0.000487,0.007138,0.001555,0.005945,0.001715,0.004862
"2018-06-06 19:21:37.750 +0000",1528312897.750237,0.555058,-0.249751,-0.080743,0.510642,0.247163,-0.823501,0.000000,0.000000,0.000000,-1,-0.003656,0.000529,0.004770,0.004342,-0.001237,0.004272
"2018-06-06 19:21:37.841 +0000",1528312897.840899,0.555168,-0.249749,-0.080657,0.510733,0.247161,-0.823446,0.000000,0.000000,0.000000,-1,0.000584,0.002759,-0.000612,0.004694,0.001115,0.003850
"2018-06-06 19:21:37.932 +0000",1528312897.931560,0.555361,-0.249548,-0.080542,0.510917,0.246966,-0.823389,0.000000,0.000000,0.000000,-1,0.000552,0.001643,0.003688,0.006264,0.000593,0.005824
"2018-06-06 19:21:38.022 +0000",1528312898.022221,0.555247,-0.249489,-0.080535,0.510831,0.246909,-0.823460,0.000000,0.000000,0.000000,-1,-0.000463,-0.000537,-0.000619,0.006457,0.000085,0.005635
"2018-06-06 19:21:38.113 +0000",1528312898.112883,0.555163,-0.249548,-0.080599,0.510754,0.246966,-0.823491,0.000000,0.000000,0.000000,-1,0.000578,0.000559,0.000458,0.005756,0.000715,0.003117
"2018-06-06 19:21:38.204 +0000",1528312898.203543,0.555169,-0.249612,-0.080531,0.510751,0.247028,-0.823474,0.000000,0.000000,0.000000,-1,-0.002580,-0.000552,0.001537,0.003531,0.001386,0.003879
"2018-06-06 19:21:38.294 +0000",1528312898.294204,0.555465,-0.249492,-0.080423,0.511011,0.246912,-0.823348,0.000000,0.000000,0.000000,-1,0.000561,0.000550,0.002609,0.003073,-0.000497,0.003295
"2018-06-06 19:21:38.385 +0000",1528312898.384865,0.555637,-0.249453,-0.080463,0.511157,0.246874,-0.823268,0.000000,0.000000,0.000000,-1,0.000575,0.003852,0.000467,0.007138,0.000349,0.006679
"2018-06-06 19:21:38.476 +0000",1528312898.475527,0.555773,-0.249716,-0.080248,0.511235,0.247129,-0.823143,0.000000,0.000000,0.000000,-1,-0.004878,-0.000796,0.002337,0.002605,0.001238,0.001824
"2018-06-06 19:21:38.566 +0000",1528312898.566188,0.555845,-0.249556,-0.080146,0.511315,0.246974,-0.823140,0.000000,0.000000,0.000000,-1,0.001450,-0.001863,-0.000907,0.011024,0.004323,0.004552
"2018-06-06 19:21:38.657 +0000",1528312898.656849,0.555568,-0.249318,-0.080332,0.511118,0.246743,-0.823332,0.000000,0.000000,0.000000,-1,0.005669,-0.002940,-0.003071,0.002385,0.001701,0.003706
"2018-06-06 19:21:38.748 +0000",1528312898.747511,0.555463,-0.249108,-0.080691,0.511059,0.246540,-0.823429,0.000000,0.000000,0.000000,-1,0.002511,0.004735,-0.003042,0.002384,0.000256,0.003330
"2018-06-06 19:21:38.838 +0000",1528312898.838172,0.555656,-0.249147,-0.080980,0.511213,0.246577,-0.823322,0.000000,0.000000,0.000000,-1,-0.000639,0.003629,-0.003038,0.008455,0.000218,0.005131
"2018-06-06 19:21:38.929 +0000",1528312898.928833,0.555451,-0.249440,-0.081321,0.511006,0.246861,-0.823366,0.000000,0.000000,0.000000,-1,-0.001666,-0.004049,-0.005209,0.005367,0.000347,0.004534
"2018-06-06 19:21:39.019 +0000",1528312899.019495,0.555145,-0.249708,-0.081606,0.510719,0.247121,-0.823466,0.000000,0.000000,0.000000,-1,0.002559,-0.002926,-0.008442,0.005745,0.001765,0.004267
"2018-06-06 19:21:39.110 +0000",1528312899.110156,0.554654,-0.249686,-0.082174,0.510318,0.247100,-0.823721,0.000000,0.000000,0.000000,-1,0.003593,-0.002932,-0.006294,0.003980,0.001237,0.004370
"2018-06-06 19:21:39.201 +0000",1528312899.200817,0.554443,-0.249518,-0.082546,0.510165,0.246937,-0.823864,0.000000,0.000000,0.000000,-1,0.002509,-0.001856,-0.001985,0.005307,-0.000981,0.004620
"2018-06-06 19:21:39.291 +0000",1528312899.291478,0.554227,-0.249541,-0.083141,0.509985,0.246959,-0.823969,0.000000,0.000000,0.000000,-1,0.001514,0.000369,-0.009506,0.006800,0.002248,0.006236
"2018-06-06 19:21:39.382 +0000",1528312899.382140,0.553861,-0.249411,-0.083559,0.509700,0.246833,-0.824184,0.000000,0.000000,0.000000,-1,0.003560,-0.002950,-0.001991,0.005147,0.002572,0.004802
"2018-06-06 19:21:39.473 +0000",1528312899.472801,0.553684,-0.249206,-0.083580,0.509581,0.246635,-0.824317,0.000000,0.000000,0.000000,-1,0.000380,0.001418,0.001256,0.004915,-0.001090,0.003577
"2018-06-06 19:21:39.563 +0000",1528312899.563462,0.553835,-0.248774,-0.083249,0.509761,0.246216,-0.824330,0.000000,0.000000,0.000000,-1,0.003483,0.000300,0.007697,0.006597,0.002838,0.004064
"2018-06-06 19:21:39.654 +0000",1528312899.654123,0.553484,-0.248247,-0.082851,0.509540,0.245705,-0.824619,0.000000,0.000000,0.000000,-1,0.004555,-0.005177,0.005528,0.006604,0.002433,0.005009
"2018-06-06 19:21:39.745 +0000",1528312899.744785,0.553224,-0.247880,-0.082672,0.509373,0.245349,-0.824829,0.000000,0.000000,0.000000,-1,0.001417,-0.001883,0.003393,0.003842,0.001126,0.003906
"2018-06-06 19:21:39.835 +0000",1528312899.835446,0.553385,-0.247468,-0.082527,0.509559,0.244950,-0.824832,0.000000,0.000000,0.000000,-1,0.002455,0.002506,0.004479,0.004449,0.002044,0.005405
"2018-06-06 19:21:39.926 +0000",1528312899.926107,0.553542,-0.247126,-0.082509,0.509732,0.244619,-0.824824,0.000000,0.000000,0.000000,-1,0.002481,0.001422,0.001249,0.009143,0.001002,0.004801
"2018-06-06 19:21:40.017 +0000",1528312900.016769,0.553099,-0.247049,-0.082499,0.509377,0.244544,-0.825065,0.000000,0.000000,0.000000,-1,-0.006943,-0.011769,-0.000919,0.011284,-0.000571,0.006782
"2018-06-06 19:21:40.107 +0000",1528312900.107430,0.552081,-0.247484,-0.082433,0.508481,0.244965,-0.825492,0.000000,0.000000,0.000000,-1,-0.002725,-0.011748,-0.003080,0.003238,0.002487,0.003440
"2018-06-06 19:21:40.198 +0000",1528312900.198091,0.551746,-0.247416,-0.082494,0.508213,0.244900,-0.825677,0.000000,0.000000,0.000000,-1,0.002487,0.003622,0.000180,-0.003711,0.002247,0.000299
"2018-06-06 19:21:40.289 +0000",1528312900.288753,0.552403,-0.247193,-0.082432,0.508784,0.244684,-0.825389,0.000000,0.000000,0.000000,-1,-0.000649,0.004720,-0.001961,0.013357,-0.001825,0.008037
"2018-06-06 19:21:40.379 +0000",1528312900.379414,0.552381,-0.247544,-0.082279,0.508721,0.245024,-0.825327,0.000000,0.000000,0.000000,-1,-0.002773,-0.005184,0.002318,0.007423,0.004900,0.004710
"2018-06-06 19:21:40.470 +0000",1528312900.470075,0.551663,-0.247250,-0.082153,0.508165,0.244739,-0.825754,0.000000,0.000000,0.000000,-1,0.007747,-0.005146,0.000142,0.003264,0.000989,0.004129
"2018-06-06 19:21:40.561 +0000",1528312900.560736,0.551463,-0.246984,-0.082589,0.508034,0.244481,-0.825911,0.000000,0.000000,0.000000,-1,0.000979,0.001436,-0.003052,0.002998,-0.000935,0.005049
"2018-06-06 19:21:40.651 +0000",1528312900.651398,0.552069,-0.247002,-0.082600,0.508533,0.244498,-0.825599,0.000000,0.000000,0.000000,-1,-0.001177,0.007989,0.003426,0.004361,0.001382,0.003959
"2018-06-06 19:21:40.742 +0000",1528312900.742059,0.552464,-0.246909,-0.082375,0.508870,0.244408,-0.825418,0.000000,0.000000,0.000000,-1,0.002005,0.001425,0.000172,0.009914,0.002785,0.007135
"2018-06-06 19:21:40.833 +0000",1528312900.832720,0.552161,-0.246971,-0.082524,0.508613,0.244468,-0.825559,0.000000,0.000000,0.000000,-1,-0.001132,-0.005166,-0.000915,0.003426,0.001595,0.003903
"2018-06-06 19:21:40.923 +0000",1528312900.923382,0.551989,-0.246804,-0.082570,0.508492,0.244306,-0.825681,0.000000,0.000000,0.000000,-1,0.003050,-0.001870,0.001236,0.002647,0.000353,0.007474
"2018-06-06 19:21:41.014 +0000",1528312901.014043,0.552092,-0.246554,-0.082973,0.508609,0.244063,-0.825681,0.000000,0.000000,0.000000,-1,0.004118,0.005831,-0.001971,0.005857,0.001359,0.003614
"2018-06-06 19:21:41.105 +0000",1528312901.104704,0.552291,-0.246512,-0.082972,0.508778,0.244023,-0.825588,0.000000,0.000000,0.000000,-1,0.002014,0.000332,-0.000906,0.009319,0.000530,0.007107
"2018-06-06 19:21:41.195 +0000",1528312901.195365,0.552179,-0.246448,-0.082898,0.508694,0.243961,-0.825659,0.000000,0.000000,0.000000,-1,-0.001174,-0.004090,0.004466,0.004810,0.002362,0.003332
"2018-06-06 19:21:41.286 +0000",1528312901.286027,0.552158,-0.246411,-0.082723,0.508681,0.243925,-0.825677,0.000000,0.000000,0.000000,-1,0.002023,-0.000761,-0.001985,0.005158,0.000597,0.004891
"2018-06-06 19:21:41.377 +0000",1528312901.376687,0.552187,-0.246618,-0.082872,0.508679,0.244125,-0.825619,0.000000,0.000000,0.000000,-1,-0.003232,0.002517,-0.001964,0.006733,0.001343,0.005826
"2018-06-06 19:21:41.467 +0000",1528312901.467348,0.552146,-0.246870,-0.082878,0.508613,0.244370,-0.825588,0.000000,0.000000,0.000000,-1,-0.000095,0.000322,0.000174,0.003853,0.002334,0.003551
"2018-06-06 19:21:41.558 +0000",1528312901.558010,0.552064,-0.246850,-0.083180,0.508548,0.244351,-0.825633,0.000000,0.000000,0.000000,-1,0.002040,-0.000749,-0.004134,0.005765,0.001377,0.004588
"2018-06-06 19:21:41.649 +0000",1528312901.648671,0.552167,-0.246895,-0.083578,0.508627,0.244394,-0.825572,0.000000,0.000000,0.000000,-1,0.000988,0.001444,-0.004125,0.006570,0.000983,0.005702
"2018-06-06 19:21:41.739 +0000",1528312901.739332,0.552093,-0.246788,-0.083926,0.508580,0.244290,-0.825632,0.000000,0.000000,0.000000,-1,-0.000075,-0.002959,-0.001984,0.006282,0.000461,0.006463
"2018-06-06 19:21:41.830 +0000",1528312901.829993,0.552050,-0.246935,-0.084257,0.508526,0.244433,-0.825623,0.000000,0.000000,0.000000,-1,-0.002162,0.000337,-0.004121,0.007038,0.001844,0.004944
"2018-06-06 19:21:41.921 +0000",1528312901.920655,0.551912,-0.247144,-0.084567,0.508385,0.244636,-0.825649,0.000000,0.000000,0.000000,-1,-0.004269,-0.001869,-0.003047,0.007606,0.000847,0.006863
"2018-06-06 19:21:42.011 +0000",1528312902.011316,0.551790,-0.247459,-0.084443,0.508243,0.244941,-0.825646,0.000000,0.000000,0.000000,-1,-0.003279,0.000298,0.004487,0.003903,0.001916,0.004494
"2018-06-06 19:21:42.102 +0000",1528312902.101977,0.551694,-0.247208,-0.084043,0.508197,0.244698,-0.825747,0.000000,0.000000,0.000000,-1,0.000911,-0.004090,0.006616,0.004422,0.001045,0.005663
"2018-06-06 19:21:42.193 +0000",1528312902.192639,0.551692,-0.246911,-0.083799,0.508233,0.244410,-0.825810,0.000000,0.000000,0.000000,-1,0.004079,0.003616,0.003404,0.006003,0.001562,0.005558
"2018-06-06 19:21:42.283 +0000",1528312902.283300,0.551890,-0.246633,-0.083444,0.508432,0.244140,-0.825767,0.000000,0.000000,0.000000,-1,-0.001203,0.000290,0.007709,0.006842,0.000138,0.004722
"2018-06-06 19:21:42.374 +0000",1528312902.373962,0.551912,-0.246418,-0.083072,0.508477,0.243931,-0.825801,0.000000,0.000000,0.000000,-1,-0.003285,-0.001902,0.005556,0.011191,0.004909,0.005473
"2018-06-06 19:21:42.465 +0000",1528312902.464623,0.551753,-0.245609,-0.082511,0.508450,0.243147,-0.826049,0.000000,0.000000,0.000000,-1,0.002965,0.001382,0.012005,-0.000866,-0.004469,-0.002137
"2018-06-06 19:21:42.555 +0000",1528312902.555285,0.553379,-0.245854,-0.081766,0.509761,0.243385,-0.825171,0.000000,0.000000,0.000000,-1,-0.009566,0.018953,0.000512,0.004781,-0.001289,0.005652
"2018-06-06 19:21:42.646 +0000",1528312902.645947,0.554582,-0.246320,-0.081757,0.510693,0.243837,-0.824461,0.000000,0.000000,0.000000,-1,-0.000048,0.003638,-0.006008,0.015064,0.004851,0.007703
"2018-06-06 19:21:42.737 +0000",1528312902.736608,0.554078,-0.246409,-0.081804,0.510266,0.243923,-0.824699,0.000000,0.000000,0.000000,-1,-0.000073,-0.013949,-0.000681,0.012912,0.002323,0.006447
"2018-06-06 19:21:42.827 +0000",1528312902.827270,0.553012,-0.246683,-0.081423,0.509351,0.244189,-0.825186,0.000000,0.000000,0.000000,-1,-0.005314,-0.007368,-0.002801,0.001910,-0.001315,0.001486
"2018-06-06 19:21:42.918 +0000",1528312902.917931,0.552879,-0.247043,-0.081119,0.509196,0.244538,-0.825179,0.000000,0.000000,0.000000,-1,-0.001150,-0.002983,0.001504,0.002782,0.003524,0.003264
"2018-06-06 19:21:43.009 +0000",1528312903.008591,0.553077,-0.247066,-0.080835,0.509356,0.244561,-0.825073,0.000000,0.000000,0.000000,-1,-0.000100,-0.002980,0.001502,0.005445,0.000725,0.005966
"2018-06-06 19:21:43.099 +0000",1528312903.099252,0.553332,-0.247071,-0.080790,0.509566,0.244565,-0.824942,0.000000,0.000000,0.000000,-1,-0.000089,0.002517,-0.000633,0.007585,-0.000439,0.004675
"2018-06-06 19:21:43.190 +0000",1528312903.189914,0.553467,-0.247293,-0.080556,0.509648,0.244780,-0.824827,0.000000,0.000000,0.000000,-1,-0.006405,0.000295,0.001526,0.007655,0.002626,0.005354
"2018-06-06 19:21:43.281 +0000",1528312903.280576,0.553180,-0.247181,-0.080465,0.509427,0.244672,-0.824996,0.000000,0.000000,0.000000,-1,0.006230,-0.006243,-0.001749,0.004352,0.001758,0.005615
"2018-06-06 19:21:43.371 +0000",1528312903.371235,0.552910,-0.247257,-0.080844,0.509194,0.244745,-0.825118,0.000000,0.000000,0.000000,-1,-0.002115,0.002552,-0.010309,0.004188,-0.003183,0.001937
"2018-06-06 19:21:43.462 +0000",1528312903.461897,0.553366,-0.247596,-0.081104,0.509527,0.245074,-0.824815,0.000000,0.000000,0.000000,-1,-0.001131,0.002519,-0.001707,0.009455,0.003354,0.006730
"2018-06-06 19:21:43.553 +0000",1528312903.552558,0.553303,-0.247397,-0.081043,0.509500,0.244881,-0.824889,0.000000,0.000000,0.000000,-1,0.007192,0.000303,0.009025,0.005819,0.004295,0.007979
"2018-06-06 19:21:43.643 +0000",1528312903.643219,0.553398,-0.246535,-0.080365,0.509689,0.244045,-0.825020,0.000000,0.000000,0.000000,-1,0.000850,0.006854,0.013361,0.006104,-0.000255,0.002525
"2018-06-06 19:21:43.734 +0000",1528312903.733881,0.553575,-0.246167,-0.080097,0.509882,0.243688,-0.825006,0.000000,0.000000,0.000000,-1,0.003108,-0.001841,-0.006031,0.007772,-0.001378,0.004907
"2018-06-06 19:21:43.825 +0000",1528312903.824543,0.553446,-0.246177,-0.080399,0.509774,0.243698,-0.825070,0.000000,0.000000,0.000000,-1,-0.000091,-0.002975,0.000427,0.006110,0.003205,0.005078
"2018-06-06 19:21:43.915 +0000",1528312903.915204,0.553071,-0.245998,-0.080222,0.509488,0.243524,-0.825298,0.000000,0.000000,0.000000,-1,0.002002,-0.004071,0.001495,0.005374,0.000098,0.004772
"2018-06-06 19:21:44.006 +0000",1528312904.005865,0.552764,-0.245957,-0.080516,0.509240,0.243484,-0.825463,0.000000,0.000000,0.000000,-1,0.005210,-0.002933,-0.006039,0.006645,0.000641,0.005211
"2018-06-06 19:21:44.097 +0000",1528312904.096527,0.552280,-0.246088,-0.080907,0.508823,0.243612,-0.825682,0.000000,0.000000,0.000000,-1,0.002029,-0.006253,-0.001738,0.008343,0.003458,0.005843
"2018-06-06 19:21:44.187 +0000",1528312904.187187,0.551892,-0.245952,-0.080806,0.508520,0.243480,-0.825908,0.000000,0.000000,0.000000,-1,-0.003248,-0.005184,0.001504,0.003900,0.001424,0.005153
