timestamp,timeIntervalSince1970,attitude.roll,attitude.pitch,attitude.yaw,gravity.x,gravity.y,gravity.z,magneticField.x,magneticField.y,magneticField.z,magneticField.accuracy,rotationRate.x,rotationRate.y,rotationRate.z,userAcceleration.x,userAcceleration.y,userAcceleration.z
"2018-06-07 01:53:09.620 +0000",1528336389.619845,-0.210311,0.127991,0.027241,-0.207057,-0.127642,-0.969967,0.000000,0.000000,0.000000,-1,-2.206166,3.335060,1.070849,0.086375,0.279467,0.248775
"2018-06-07 01:53:09.630 +0000",1528336389.629918,-0.173410,0.101115,0.031907,-0.171661,-0.100943,-0.979971,0.000000,0.000000,0.000000,-1,-2.652897,3.844934,0.915236,0.031616,0.286109,0.352041
"2018-06-07 01:53:09.640 +0000",1528336389.639991,-0.130980,0.069607,0.034650,-0.130290,-0.069551,-0.989034,0.000000,0.000000,0.000000,-1,-3.177721,4.348372,0.671579,-0.022191,0.330918,0.366338
"2018-06-07 01:53:09.650 +0000",1528336389.650065,-0.085716,0.035648,0.034723,-0.085557,-0.035641,-0.995696,0.000000,0.000000,0.000000,-1,-3.364849,4.514231,0.262670,-0.065978,0.380962,0.190489
"2018-06-07 01:53:09.660 +0000",1528336389.660138,-0.040309,0.003373,0.032199,-0.040298,-0.003373,-0.999182,0.000000,0.000000,0.000000,-1,-3.137984,4.496806,-0.144494,-0.085984,0.409394,-0.059839
"2018-06-07 01:53:09.670 +0000",1528336389.670211,0.003593,-0.024861,0.028005,0.003592,0.024858,-0.999685,0.000000,0.000000,0.000000,-1,-2.685047,4.286266,-0.423661,-0.016302,0.398756,-0.159373
"2018-06-07 01:53:09.680 +0000",1528336389.680285,0.042260,-0.047576,0.023300,0.042200,0.047558,-0.997977,0.000000,0.000000,0.000000,-1,-2.094381,3.676913,-0.534350,0.125372,0.297306,-0.269632
"2018-06-07 01:53:09.690 +0000",1528336389.690358,0.072705,-0.064884,0.019441,0.072488,0.064839,-0.995259,0.000000,0.000000,0.000000,-1,-1.570108,2.827244,-0.449820,0.189032,0.176983,-0.325221
"2018-06-07 01:53:09.700 +0000",1528336389.700432,0.095252,-0.077934,0.017186,0.094819,0.077855,-0.992445,0.000000,0.000000,0.000000,-1,-1.191446,2.091033,-0.292557,0.110168,0.129207,-0.285738
"2018-06-07 01:53:09.711 +0000",1528336389.710505,0.113978,-0.088796,0.016069,0.113283,0.088679,-0.989597,0.000000,0.000000,0.000000,-1,-1.029068,1.840832,-0.206530,-0.006990,0.186452,-0.175976
"2018-06-07 01:53:09.721 +0000",1528336389.720578,0.132904,-0.098769,0.015375,0.131868,0.098608,-0.986351,0.000000,0.000000,0.000000,-1,-0.964178,1.901295,-0.183914,-0.021989,0.225779,-0.037591
"2018-06-07 01:53:09.731 +0000",1528336389.730652,0.150393,-0.108675,0.015435,0.148943,0.108461,-0.982880,0.000000,0.000000,0.000000,-1,-0.972879,1.595770,-0.107336,0.049071,0.154113,0.009521
"2018-06-07 01:53:09.741 +0000",1528336389.740725,0.153353,-0.116881,0.016817,0.151710,0.116615,-0.981522,0.000000,0.000000,0.000000,-1,-0.779087,-0.198088,0.045121,0.110528,0.114967,-0.059830
"2018-06-07 01:53:09.751 +0000",1528336389.750799,0.144492,-0.126211,0.018846,0.142845,0.125876,-0.981708,0.000000,0.000000,0.000000,-1,-1.049418,-1.040908,0.063726,0.134682,0.130639,0.134494
"2018-06-07 01:53:09.761 +0000",1528336389.760872,0.134253,-0.140479,0.023107,0.132532,0.140017,-0.981239,0.000000,0.000000,0.000000,-1,-1.588955,-1.026897,0.291963,0.095007,0.100766,0.330162
"2018-06-07 01:53:09.771 +0000",1528336389.770945,0.125867,-0.157548,0.030867,0.123980,0.156897,-0.979802,0.000000,0.000000,0.000000,-1,-1.810967,-0.966268,0.608888,0.168531,0.065103,0.249623
"2018-06-07 01:53:09.781 +0000",1528336389.781019,0.115475,-0.174200,0.040593,0.113474,0.173320,-0.978306,0.000000,0.000000,0.000000,-1,-1.714319,-1.269705,0.780963,0.204763,0.073628,-0.031947
"2018-06-07 01:53:09.791 +0000",1528336389.791092,0.103352,-0.188243,0.051232,0.101346,0.187133,-0.977093,0.000000,0.000000,0.000000,-1,-1.420077,-1.407770,0.915418,0.171115,0.053330,-0.199100
"2018-06-07 01:53:09.801 +0000",1528336389.801165,0.092813,-0.199275,0.063088,0.090845,0.197959,-0.975992,0.000000,0.000000,0.000000,-1,-1.137993,-1.203516,1.086394,0.202154,0.029733,-0.226874
"2018-06-07 01:53:09.811 +0000",1528336389.811239,0.086396,-0.208222,0.076622,0.084425,0.206720,-0.974751,0.000000,0.000000,0.000000,-1,-0.966571,-0.799878,1.281867,0.278902,0.040060,-0.177715
"2018-06-07 01:53:09.821 +0000",1528336389.821312,0.085356,-0.216282,0.092237,0.083266,0.214600,-0.973146,0.000000,0.000000,0.000000,-1,-0.929809,-0.294588,1.493004,0.390916,0.026535,-0.085478
"2018-06-07 01:53:09.831 +0000",1528336389.831385,0.091721,-0.225591,0.109765,0.089271,0.223683,-0.970565,0.000000,0.000000,0.000000,-1,-1.139663,0.455063,1.646255,0.441307,0.006603,0.063171
"2018-06-07 01:53:09.841 +0000",1528336389.841459,0.107172,-0.238395,0.128740,0.103942,0.236143,-0.966143,0.000000,0.000000,0.000000,-1,-1.558929,1.308831,1.701330,0.390992,-0.003554,0.219683
"2018-06-07 01:53:09.852 +0000",1528336389.851532,0.131084,-0.255436,0.147635,0.126467,0.252668,-0.959252,0.000000,0.000000,0.000000,-1,-1.998675,2.120567,1.556260,0.288022,0.003650,0.248055
"2018-06-07 01:53:09.862 +0000",1528336389.861606,0.163327,-0.275469,0.165047,0.156471,0.271998,-0.949491,0.000000,0.000000,0.000000,-1,-2.262077,2.956370,1.286080,0.194679,0.032781,0.163511
"2018-06-07 01:53:09.872 +0000",1528336389.871679,0.203499,-0.296064,0.180566,0.193305,0.291757,-0.936756,0.000000,0.000000,0.000000,-1,-2.258693,3.736900,1.022659,0.199075,0.086371,0.041950
"2018-06-07 01:53:09.882 +0000",1528336389.881752,0.249204,-0.314878,0.195118,0.234507,0.309700,-0.921462,0.000000,0.000000,0.000000,-1,-2.085986,4.193438,0.907422,0.329534,0.056343,-0.031785
"2018-06-07 01:53:09.892 +0000",1528336389.891826,0.298430,-0.332099,0.210443,0.277955,0.326028,-0.903574,0.000000,0.000000,0.000000,-1,-2.038200,4.475555,0.941478,0.471267,-0.057412,0.026011
"2018-06-07 01:53:09.902 +0000",1528336389.901899,0.352388,-0.349284,0.228513,0.324299,0.342225,-0.881880,0.000000,0.000000,0.000000,-1,-2.217318,4.856400,1.104343,0.585582,-0.103288,0.184446
"2018-06-07 01:53:09.912 +0000",1528336389.911973,0.412544,-0.366986,0.251907,0.374244,0.358804,-0.855103,0.000000,0.000000,0.000000,-1,-2.522002,5.250287,1.477284,0.638741,-0.073739,0.316422
"2018-06-07 01:53:09.922 +0000",1528336389.922046,0.478577,-0.382908,0.284015,0.427167,0.373619,-0.823369,0.000000,0.000000,0.000000,-1,-2.759644,5.391596,2.178484,0.711902,-0.051705,0.370122
"2018-06-07 01:53:09.932 +0000",1528336389.932119,0.544045,-0.396046,0.323622,0.477536,0.385773,-0.789391,0.000000,0.000000,0.000000,-1,-2.982875,4.809600,2.596804,0.788242,0.074691,0.251992
"2018-06-07 01:53:09.942 +0000",1528336389.942193,0.602155,-0.410421,0.365743,0.519380,0.398995,-0.755677,0.000000,0.000000,0.000000,-1,-3.397262,3.931193,2.367161,0.627120,0.276130,0.113678
"2018-06-07 01:53:09.952 +0000",1528336389.952266,0.656875,-0.428629,0.407893,0.555404,0.415624,-0.720266,0.000000,0.000000,0.000000,-1,-3.804230,3.723403,1.909263,0.322510,0.253229,0.241796
"2018-06-07 01:53:09.962 +0000",1528336389.962339,0.714192,-0.449660,0.449665,0.589896,0.434659,-0.680510,0.000000,0.000000,0.000000,-1,-4.039616,4.008876,1.478224,0.091562,0.119311,0.338469
"2018-06-07 01:53:09.972 +0000",1528336389.972413,0.773997,-0.471563,0.490779,0.622710,0.454279,-0.637074,0.000000,0.000000,0.000000,-1,-4.071754,4.106817,1.137603,0.019853,0.037695,0.214115
"2018-06-07 01:53:09.982 +0000",1528336389.982486,0.829003,-0.492784,0.531012,0.649539,0.473080,-0.595227,0.000000,0.000000,0.000000,-1,-3.980933,3.359418,0.892125,0.077573,-0.052533,-0.085743
"2018-06-07 01:53:09.993 +0000",1528336389.992559,0.870997,-0.512533,0.571076,0.666677,0.490387,-0.561305,0.000000,0.000000,0.000000,-1,-3.894899,1.846142,0.817609,0.128108,-0.201355,-0.448476
"2018-06-07 01:53:10.003 +0000",1528336390.002633,0.898784,-0.530227,0.611970,0.675117,0.505730,-0.537080,0.000000,0.000000,0.000000,-1,-3.809022,0.418976,0.889631,0.042534,-0.385918,-0.621429
"2018-06-07 01:53:10.013 +0000",1528336390.012706,0.918378,-0.545238,0.652496,0.679402,0.518621,-0.519081,0.000000,0.000000,0.000000,-1,-3.572638,-0.241534,0.963539,0.013210,-0.439489,-0.491875
"2018-06-07 01:53:10.023 +0000",1528336390.022780,0.934175,-0.557255,0.690097,0.682455,0.528859,-0.504543,0.000000,0.000000,0.000000,-1,-3.141717,-0.414817,0.948065,0.034296,-0.406453,-0.339467
"2018-06-07 01:53:10.033 +0000",1528336390.032853,0.947254,-0.566278,0.722818,0.685094,0.536495,-0.492767,0.000000,0.000000,0.000000,-1,-2.609689,-0.428409,0.876890,0.077174,-0.338741,-0.266983
"2018-06-07 01:53:10.043 +0000",1528336390.042926,0.958426,-0.572192,0.749488,0.687948,0.541476,-0.483251,0.000000,0.000000,0.000000,-1,-2.009494,-0.262841,0.797475,0.148355,-0.294528,-0.233622
"2018-06-07 01:53:10.053 +0000",1528336390.053000,0.971733,-0.574724,0.771320,0.693183,0.543603,-0.473279,0.000000,0.000000,0.000000,-1,-1.537828,0.317857,0.854018,0.218087,-0.355645,-0.160372
"2018-06-07 01:53:10.063 +0000",1528336390.063073,0.990300,-0.574213,0.791420,0.702082,0.543174,-0.460481,0.000000,0.000000,0.000000,-1,-1.320066,0.873263,1.014330,0.291494,-0.387946,-0.089141
"2018-06-07 01:53:10.073 +0000",1528336390.073146,1.011858,-0.571481,0.811509,0.713101,0.540878,-0.446025,0.000000,0.000000,0.000000,-1,-1.257399,1.103323,1.168673,0.276645,-0.302323,-0.196859
"2018-06-07 01:53:10.083 +0000",1528336390.083220,1.035613,-0.567615,0.831978,0.725287,0.537622,-0.430024,0.000000,0.000000,0.000000,-1,-1.263259,1.330331,1.219902,0.114206,-0.275431,-0.247344
"2018-06-07 01:53:10.093 +0000",1528336390.093293,1.061900,-0.564045,0.850722,0.738011,0.534609,-0.411744,0.000000,0.000000,0.000000,-1,-1.143442,1.709109,1.026038,-0.053227,-0.295061,-0.237731
"2018-06-07 01:53:10.103 +0000",1528336390.103367,1.088414,-0.561834,0.865097,0.749713,0.532739,-0.392581,0.000000,0.000000,0.000000,-1,-0.883633,1.885818,0.681751,-0.208697,-0.282815,-0.272580
"2018-06-07 01:53:10.113 +0000",1528336390.113440,1.110708,-0.560039,0.874197,0.759133,0.531219,-0.376195,0.000000,0.000000,0.000000,-1,-0.500501,1.652854,0.468294,-0.067666,-0.278137,-0.377528
"2018-06-07 01:53:10.124 +0000",1528336390.123513,1.127604,-0.556821,0.878681,0.766921,0.528490,-0.364047,0.000000,0.000000,0.000000,-1,-0.111615,1.414641,0.463483,0.056031,-0.274141,-0.411923
"2018-06-07 01:53:10.134 +0000",1528336390.133587,1.143962,-0.551166,0.881355,0.775481,0.523681,-0.352685,0.000000,0.000000,0.000000,-1,0.055900,1.488927,0.661234,0.155030,-0.196930,-0.165580
"2018-06-07 01:53:10.144 +0000",1528336390.143660,1.159975,-0.543212,0.886287,0.784823,0.516888,-0.341876,0.000000,0.000000,0.000000,-1,-0.136460,1.283972,0.979470,0.262265,-0.182995,0.044116
"2018-06-07 01:53:10.154 +0000",1528336390.153733,1.178232,-0.533298,0.898185,0.795630,0.508376,-0.329435,0.000000,0.000000,0.000000,-1,-0.705830,1.190557,1.412911,0.334040,-0.235534,0.253156
"2018-06-07 01:53:10.164 +0000",1528336390.163807,1.200270,-0.522251,0.918493,0.807882,0.498833,-0.313837,0.000000,0.000000,0.000000,-1,-1.370995,1.169823,1.728462,0.307109,-0.217308,0.362803
"2018-06-07 01:53:10.174 +0000",1528336390.173880,1.224270,-0.511755,0.944415,0.820060,0.489708,-0.296121,0.000000,0.000000,0.000000,-1,-1.819502,1.081799,1.741065,0.140496,-0.125634,0.223001
"2018-06-07 01:53:10.184 +0000",1528336390.183953,1.247641,-0.503314,0.970970,0.830646,0.482331,-0.278179,0.000000,0.000000,0.000000,-1,-1.897217,1.042096,1.471141,-0.053730,-0.047669,0.031475
"2018-06-07 01:53:10.194 +0000",1528336390.194027,1.270275,-0.496592,0.994691,0.839807,0.476432,-0.260263,0.000000,0.000000,0.000000,-1,-1.692621,1.150230,1.212832,-0.132837,-0.081168,-0.063346
"2018-06-07 01:53:10.204 +0000",1528336390.204100,1.291250,-0.489869,1.012516,0.848140,0.470510,-0.243470,0.000000,0.000000,0.000000,-1,-1.165366,1.265391,1.063521,-0.121532,-0.112936,-0.270217
"2018-06-07 01:53:10.214 +0000",1528336390.214174,1.309093,-0.481537,1.023907,0.856106,0.463142,-0.229305,0.000000,0.000000,0.000000,-1,-0.601364,1.219716,1.072853,-0.065747,-0.111961,-0.434392
"2018-06-07 01:53:10.224 +0000",1528336390.224247,1.322415,-0.471011,1.029919,0.863763,0.453787,-0.219066,0.000000,0.000000,0.000000,-1,-0.151384,0.983391,1.181926,0.072669,-0.027777,-0.503758
"2018-06-07 01:53:10.234 +0000",1528336390.234320,1.332895,-0.457694,1.033476,0.871807,0.441880,-0.211408,0.000000,0.000000,0.000000,-1,0.039074,0.869835,1.424255,0.197452,-0.017869,-0.367297
"2018-06-07 01:53:10.244 +0000",1528336390.244394,1.343306,-0.443292,1.037553,0.880070,0.428916,-0.203735,0.000000,0.000000,0.000000,-1,-0.071424,0.848544,1.454565,0.084133,0.026544,-0.121323
"2018-06-07 01:53:10.254 +0000",1528336390.254467,1.353115,-0.431692,1.043611,0.886825,0.418408,-0.196153,0.000000,0.000000,0.000000,-1,-0.346288,0.661286,1.162074,-0.269637,0.249988,0.008333
"2018-06-07 01:53:10.265 +0000",1528336390.264540,1.360286,-0.423366,1.051046,0.891585,0.410832,-0.190510,0.000000,0.000000,0.000000,-1,-0.512958,0.311780,0.888225,-0.333647,0.216808,-0.024166
"2018-06-07 01:53:10.275 +0000",1528336390.274614,1.363554,-0.417700,1.058464,0.894466,0.405659,-0.188072,0.000000,0.000000,0.000000,-1,-0.542031,-0.063701,0.617213,-0.229198,0.055828,-0.087792
"2018-06-07 01:53:10.285 +0000",1528336390.284687,1.364840,-0.414607,1.065060,0.895931,0.402830,-0.187177,0.000000,0.000000,0.000000,-1,-0.516990,-0.124084,0.372808,-0.123714,-0.037016,-0.052066
"2018-06-07 01:53:10.295 +0000",1528336390.294761,1.367315,-0.412755,1.071319,0.897121,0.401135,-0.185110,0.000000,0.000000,0.000000,-1,-0.523753,0.035478,0.276480,-0.040980,-0.098080,0.050268
"2018-06-07 01:53:10.305 +0000",1528336390.304834,1.371965,-0.412003,1.077205,0.898267,0.400446,-0.180995,0.000000,0.000000,0.000000,-1,-0.493537,0.310587,0.137377,-0.015836,-0.181040,0.094341
"2018-06-07 01:53:10.315 +0000",1528336390.314906,1.378600,-0.413087,1.081684,0.899022,0.401438,-0.174948,0.000000,0.000000,0.000000,-1,-0.391183,0.480846,-0.081794,-0.074101,-0.216487,0.103552
"2018-06-07 01:53:10.325 +0000",1528336390.324980,1.382553,-0.415621,1.084175,0.898704,0.403758,-0.171202,0.000000,0.000000,0.000000,-1,-0.219622,0.242653,-0.235621,-0.101722,-0.230754,-0.116029
"2018-06-07 01:53:10.335 +0000",1528336390.335053,1.384185,-0.419403,1.083975,0.897475,0.407215,-0.169451,0.000000,0.000000,0.000000,-1,0.001475,0.145278,-0.428951,-0.196059,-0.267002,-0.083387
"2018-06-07 01:53:10.345 +0000",1528336390.345126,1.383273,-0.425960,1.080667,0.894678,0.413196,-0.169768,0.000000,0.000000,0.000000,-1,0.228168,0.006942,-0.798819,-0.291071,-0.254504,0.046843
"2018-06-07 01:53:10.355 +0000",1528336390.355200,1.381107,-0.437642,1.073934,0.889507,0.423805,-0.170783,0.000000,0.000000,0.000000,-1,0.429420,0.130959,-1.444306,-0.414424,-0.214668,0.103492
"2018-06-07 01:53:10.365 +0000",1528336390.365273,1.382727,-0.457695,1.063774,0.881255,0.441882,-0.167719,0.000000,0.000000,0.000000,-1,0.550259,0.763011,-2.349513,-0.692428,-0.076495,0.238596
"2018-06-07 01:53:10.375 +0000",1528336390.375346,1.387973,-0.483887,1.050113,0.870441,0.465224,-0.160934,0.000000,0.000000,0.000000,-1,0.779739,1.244521,-2.885385,-0.557330,0.005861,0.190612
"2018-06-07 01:53:10.385 +0000",1528336390.385420,1.393247,-0.513641,1.029459,0.857269,0.491352,-0.153827,0.000000,0.000000,0.000000,-1,1.415230,1.544580,-3.337738,-0.307175,-0.141468,-0.101910
"2018-06-07 01:53:10.395 +0000",1528336390.395494,1.394978,-0.544903,1.001616,0.841994,0.518335,-0.149583,0.000000,0.000000,0.000000,-1,1.866567,1.561617,-3.436606,-0.185210,-0.226709,-0.358428
"2018-06-07 01:53:10.406 +0000",1528336390.405567,1.395314,-0.572744,0.975310,0.827510,0.541940,-0.146723,0.000000,0.000000,0.000000,-1,1.609288,1.370297,-3.009542,0.429982,-0.031091,0.119822
"2018-06-07 01:53:10.416 +0000",1528336390.415640,1.396941,-0.601260,0.951748,0.812192,0.565682,-0.142644,0.000000,0.000000,0.000000,-1,1.394562,1.545233,-3.245183,0.467288,0.036888,0.394063
"2018-06-07 01:53:10.426 +0000",1528336390.425713,1.405741,-0.636787,0.925824,0.793083,0.594615,-0.132104,0.000000,0.000000,0.000000,-1,1.524418,2.721275,-4.024054,0.038994,0.093327,0.234628
"2018-06-07 01:53:10.436 +0000",1528336390.435787,1.421005,-0.674079,0.897264,0.772533,0.624178,-0.116592,0.000000,0.000000,0.000000,-1,1.667006,3.306372,-3.925870,0.305302,0.013212,-0.005325
"2018-06-07 01:53:10.446 +0000",1528336390.445860,1.432892,-0.707375,0.867918,0.752854,0.649841,-0.104485,0.000000,0.000000,0.000000,-1,1.773295,2.887692,-3.490619,0.768966,-0.117218,-0.129417
"2018-06-07 01:53:10.456 +0000",1528336390.455933,1.435701,-0.737872,0.838681,0.733160,0.672715,-0.099653,0.000000,0.000000,0.000000,-1,1.715553,1.958876,-3.242564,0.458521,-0.135819,-0.008715
"2018-06-07 01:53:10.466 +0000",1528336390.466007,1.430389,-0.768011,0.809535,0.712215,0.694706,-0.100662,0.000000,0.000000,0.000000,-1,1.690166,1.332130,-3.278749,0.136418,-0.019551,0.176972
"2018-06-07 01:53:10.476 +0000",1528336390.476080,1.417996,-0.797218,0.781649,0.690558,0.715415,-0.106346,0.000000,0.000000,0.000000,-1,1.397398,0.482975,-3.072950,0.173837,0.041238,0.121895
"2018-06-07 01:53:10.486 +0000",1528336390.486153,1.401192,-0.823259,0.760291,0.670080,0.733366,-0.114751,0.000000,0.000000,0.000000,-1,0.939384,-0.328958,-2.690258,0.381220,0.226290,0.522679
"2018-06-07 01:53:10.496 +0000",1528336390.496227,1.377628,-0.847138,0.740253,0.649815,0.749389,-0.127109,0.000000,0.000000,0.000000,-1,0.881315,-1.047556,-2.562018,0.224300,0.175218,0.490375
"2018-06-07 01:53:10.506 +0000",1528336390.506300,1.347517,-0.871297,0.718558,0.627852,0.765165,-0.142563,0.000000,0.000000,0.000000,-1,0.890875,-1.413744,-2.667443,0.100023,-0.022199,0.219880
"2018-06-07 01:53:10.516 +0000",1528336390.516374,1.307898,-0.895374,0.691309,0.603744,0.780443,-0.162484,0.000000,0.000000,0.000000,-1,1.168399,-2.019651,-2.760195,0.004898,-0.104250,0.035196
"2018-06-07 01:53:10.526 +0000",1528336390.526447,1.262920,-0.918078,0.660288,0.578790,0.794436,-0.184048,0.000000,0.000000,0.000000,-1,1.144047,-1.827090,-2.621896,0.008307,-0.030031,0.024761
"2018-06-07 01:53:10.537 +0000",1528336390.536520,1.231821,-0.937929,0.633286,0.557802,0.806335,-0.196672,0.000000,0.000000,0.000000,-1,0.816128,-0.722713,-2.319979,0.052870,-0.059234,0.162813
"2018-06-07 01:53:10.547 +0000",1528336390.546594,1.206002,-0.956311,0.608926,0.538600,0.817070,-0.205684,0.000000,0.000000,0.000000,-1,0.669792,-0.611848,-2.152596,0.118626,-0.101250,0.004252
"2018-06-07 01:53:10.557 +0000",1528336390.556667,1.181332,-0.972310,0.587070,0.521201,0.826189,-0.213916,0.000000,0.000000,0.000000,-1,0.520547,-0.690346,-1.856681,0.073663,-0.064226,-0.017789
"2018-06-07 01:53:10.567 +0000",1528336390.566740,1.159156,-0.986537,0.569800,0.505505,0.834121,-0.220695,0.000000,0.000000,0.000000,-1,0.259344,-0.795281,-1.613292,-0.001553,0.065400,0.072883
"2018-06-07 01:53:10.577 +0000",1528336390.576814,1.142213,-0.999596,0.557936,0.491743,0.841253,-0.224681,0.000000,0.000000,0.000000,-1,-0.004066,-0.644369,-1.387440,0.022188,0.070795,0.112636
"2018-06-07 01:53:10.587 +0000",1528336390.586887,1.131486,-1.010803,0.550640,0.480742,0.847259,-0.225919,0.000000,0.000000,0.000000,-1,-0.137844,-0.383594,-1.095951,0.149477,0.034913,0.099530
"2018-06-07 01:53:10.597 +0000",1528336390.596960,1.126662,-1.019229,0.546215,0.473183,0.851704,-0.225160,0.000000,0.000000,0.000000,-1,-0.151136,0.030019,-0.783856,0.198662,0.177699,0.088441
"2018-06-07 01:53:10.607 +0000",1528336390.607034,1.125588,-1.025487,0.541651,0.468121,0.854967,-0.223368,0.000000,0.000000,0.000000,-1,-0.003506,0.337137,-0.624105,0.131504,0.244765,0.077036
"2018-06-07 01:53:10.617 +0000",1528336390.617107,1.125460,-1.028918,0.535362,0.465442,0.856741,-0.222163,0.000000,0.000000,0.000000,-1,0.195034,0.562815,-0.381883,0.217678,0.176065,0.049449
"2018-06-07 01:53:10.627 +0000",1528336390.627181,1.126197,-1.029388,0.527733,0.465242,0.856984,-0.221647,0.000000,0.000000,0.000000,-1,0.375844,0.777530,-0.154711,0.310255,0.165233,0.052076
"2018-06-07 01:53:10.637 +0000",1528336390.637254,1.128290,-1.027409,0.519144,0.467237,0.855962,-0.221398,0.000000,0.000000,0.000000,-1,0.508613,0.990063,0.037068,0.309573,0.162607,0.060723
"2018-06-07 01:53:10.647 +0000",1528336390.647327,1.132523,-1.023557,0.510968,0.471152,0.853964,-0.220816,0.000000,0.000000,0.000000,-1,0.546045,1.136564,0.205209,0.310800,0.116586,0.076819
"2018-06-07 01:53:10.657 +0000",1528336390.657401,1.136967,-1.018899,0.503813,0.475733,0.851531,-0.220390,0.000000,0.000000,0.000000,-1,0.525718,0.990227,0.271519,0.254385,0.093568,0.070640
"2018-06-07 01:53:10.667 +0000",1528336390.667474,1.138482,-1.014202,0.497657,0.479693,0.849059,-0.221343,0.000000,0.000000,0.000000,-1,0.472360,0.544267,0.299387,0.129774,0.038590,0.070601
"2018-06-07 01:53:10.678 +0000",1528336390.677547,1.131846,-1.012378,0.490595,0.479615,0.848094,-0.225178,0.000000,0.000000,0.000000,-1,0.376844,-0.321359,-0.149305,-0.026078,-0.135814,0.061009
"2018-06-07 01:53:10.688 +0000",1528336390.687621,1.120778,-1.015231,0.485724,0.474912,0.849603,-0.229419,0.000000,0.000000,0.000000,-1,-0.005229,-0.749492,-0.402452,-0.156507,-0.238030,0.167026
"2018-06-07 01:53:10.698 +0000",1528336390.697694,1.114850,-1.020598,0.488275,0.469443,0.852421,-0.230220,0.000000,0.000000,0.000000,-1,-0.454607,-0.816552,-0.415602,-0.044089,-0.154774,0.221156
"2018-06-07 01:53:10.708 +0000",1528336390.707767,1.113048,-1.026690,0.496745,0.464360,0.855590,-0.228766,0.000000,0.000000,0.000000,-1,-0.714607,-0.926320,-0.328198,0.016154,-0.142227,0.084067
"2018-06-07 01:53:10.718 +0000",1528336390.717841,1.112675,-1.033103,0.509246,0.459345,0.858892,-0.226508,0.000000,0.000000,0.000000,-1,-0.879640,-1.194845,-0.278046,0.039786,0.016291,0.038123
"2018-06-07 01:53:10.728 +0000",1528336390.727914,1.109173,-1.039436,0.524010,0.453669,0.862119,-0.225688,0.000000,0.000000,0.000000,-1,-1.000569,-1.801541,-0.184877,0.038458,0.119861,-0.019475
"2018-06-07 01:53:10.738 +0000",1528336390.737988,1.106946,-1.045018,0.545766,0.448854,0.864934,-0.224541,0.000000,0.000000,0.000000,-1,-1.280286,-2.106213,0.032157,0.088652,-0.152730,0.008186
"2018-06-07 01:53:10.748 +0000",1528336390.748061,1.106746,-1.050783,0.570582,0.444343,0.867813,-0.222395,0.000000,0.000000,0.000000,-1,-1.373597,-2.205230,0.022402,0.075707,-0.197952,0.084532
"2018-06-07 01:53:10.758 +0000",1528336390.758134,1.103384,-1.058217,0.595740,0.437821,0.871483,-0.220975,0.000000,0.000000,0.000000,-1,-1.459121,-2.583493,-0.146303,0.053802,-0.073158,-0.050372
"2018-06-07 01:53:10.768 +0000",1528336390.768209,1.110067,-1.066144,0.625416,0.433087,0.875342,-0.214966,0.000000,0.000000,0.000000,-1,-1.702751,-1.510017,-0.011394,0.065692,-0.193442,0.280640
"2018-06-07 01:53:10.778 +0000",1528336390.778281,1.130036,-1.075159,0.659354,0.430138,0.879666,-0.202900,0.000000,0.000000,0.000000,-1,-1.877379,-0.944433,-0.182527,0.369743,-0.176037,0.467899
"2018-06-07 01:53:10.788 +0000",1528336390.788354,1.147988,-1.088651,0.691373,0.422848,0.886002,-0.190258,0.000000,0.000000,0.000000,-1,-1.914106,-0.978469,-0.730046,0.266864,0.111297,-0.110523
"2018-06-07 01:53:10.798 +0000",1528336390.798428,1.167685,-1.104441,0.717817,0.413592,0.893213,-0.176383,0.000000,0.000000,0.000000,-1,-1.632457,-0.142288,-0.990716,0.029645,0.041327,0.070380
"2018-06-07 01:53:10.809 +0000",1528336390.808501,1.187993,-1.117822,0.734424,0.405964,0.899149,-0.163468,0.000000,0.000000,0.000000,-1,-1.016342,0.757058,-0.908837,0.136303,-0.126765,0.063966
"2018-06-07 01:53:10.819 +0000",1528336390.818574,1.204336,-1.126935,0.739778,0.400915,0.903100,-0.153870,0.000000,0.000000,0.000000,-1,-0.412268,1.214572,-0.708819,0.186823,-0.079278,-0.006592
"2018-06-07 01:53:10.829 +0000",1528336390.828648,1.215270,-1.133162,0.739194,0.397294,0.905757,-0.147517,0.000000,0.000000,0.000000,-1,-0.152864,1.063134,-0.549583,0.158599,0.057943,0.074320
"2018-06-07 01:53:10.839 +0000",1528336390.838721,1.221676,-1.137896,0.737940,0.394198,0.907753,-0.143500,0.000000,0.000000,0.000000,-1,-0.098796,0.651108,-0.427206,0.069136,0.119087,0.156821
"2018-06-07 01:53:10.849 +0000",1528336390.848795,1.223995,-1.140930,0.735003,0.391937,0.909021,-0.141649,0.000000,0.000000,0.000000,-1,0.060989,0.466531,-0.285048,0.007309,0.071096,0.153414
"2018-06-07 01:53:10.859 +0000",1528336390.858868,1.222700,-1.141405,0.728605,0.391347,0.909219,-0.142009,0.000000,0.000000,0.000000,-1,0.288397,0.448736,-0.079097,-0.009450,-0.005670,0.114238
"2018-06-07 01:53:10.869 +0000",1528336390.868941,1.219271,-1.139525,0.719636,0.392463,0.908435,-0.143939,0.000000,0.000000,0.000000,-1,0.446805,0.481449,0.078755,0.023232,-0.044559,0.124194
"2018-06-07 01:53:10.879 +0000",1528336390.879015,1.215271,-1.136930,0.709377,0.394093,0.907347,-0.146328,0.000000,0.000000,0.000000,-1,0.493938,0.541916,0.088504,0.069164,-0.054137,0.144573
"2018-06-07 01:53:10.889 +0000",1528336390.889088,1.212377,-1.134970,0.699959,0.395332,0.906522,-0.148091,0.000000,0.000000,0.000000,-1,0.405122,0.557298,0.026365,0.098565,-0.067075,0.128346
"2018-06-07 01:53:10.899 +0000",1528336390.899161,1.212130,-1.134298,0.694013,0.395866,0.906237,-0.148403,0.000000,0.000000,0.000000,-1,0.199831,0.488944,-0.040054,0.105492,-0.060916,0.080303
"2018-06-07 01:53:10.909 +0000",1528336390.909235,1.213165,-1.134815,0.691546,0.395580,0.906456,-0.147829,0.000000,0.000000,0.000000,-1,0.045402,0.243044,-0.142602,0.067539,-0.151268,0.039720
"2018-06-07 01:53:10.919 +0000",1528336390.919308,1.210539,-1.140856,0.689156,0.390059,0.908991,-0.146934,0.000000,0.000000,0.000000,-1,-0.176471,-0.129379,-0.747690,0.059892,-0.552255,0.052696
"2018-06-07 01:53:10.929 +0000",1528336390.929381,1.210644,-1.150457,0.693228,0.381890,0.912950,-0.143811,0.000000,0.000000,0.000000,-1,-0.631612,-0.454271,-0.799223,0.194663,-0.776796,0.137768
"2018-06-07 01:53:10.939 +0000",1528336390.939455,1.221790,-1.160028,0.713368,0.375240,0.916814,-0.136551,0.000000,0.000000,0.000000,-1,-1.220288,-0.786249,-0.557896,0.172047,-0.328893,0.095337
"2018-06-07 01:53:10.950 +0000",1528336390.949528,1.242189,-1.169872,0.745235,0.369387,0.920701,-0.125950,0.000000,0.000000,0.000000,-1,-1.579848,-0.913747,-0.497208,0.132978,-0.140382,0.069858
"2018-06-07 01:53:10.960 +0000",1528336390.959601,1.268729,-1.179995,0.784369,0.363682,0.924604,-0.113324,0.000000,0.000000,0.000000,-1,-1.766803,-0.930739,-0.495754,0.087139,-0.086744,0.072598
"2018-06-07 01:53:10.970 +0000",1528336390.969675,1.297558,-1.190303,0.821926,0.357601,0.928482,-0.100217,0.000000,0.000000,0.000000,-1,-1.540513,-0.455372,-0.615361,-0.009365,0.178864,0.154172
"2018-06-07 01:53:10.980 +0000",1528336390.979748,1.317624,-1.199745,0.845520,0.351037,0.931947,-0.090822,0.000000,0.000000,0.000000,-1,-0.913131,-0.130534,-0.698678,0.038947,0.297073,0.104616
"2018-06-07 01:53:10.990 +0000",1528336390.989822,1.326384,-1.207973,0.855558,0.344367,0.934898,-0.085884,0.000000,0.000000,0.000000,-1,-0.448993,-0.042535,-0.695182,0.165475,0.212273,0.037773
"2018-06-07 01:53:11.000 +0000",1528336390.999895,1.329686,-1.214800,0.858714,0.338443,0.937300,-0.083221,0.000000,0.000000,0.000000,-1,-0.221876,0.059803,-0.602899,0.207883,0.111040,0.101791
"2018-06-07 01:53:11.010 +0000",1528336391.009968,1.330950,-1.219735,0.858827,0.334049,0.939008,-0.081693,0.000000,0.000000,0.000000,-1,-0.095136,0.126390,-0.428741,0.192303,-0.012434,0.115171
"2018-06-07 01:53:11.020 +0000",1528336391.020042,1.332912,-1.222530,0.858772,0.331658,0.939966,-0.080419,0.000000,0.000000,0.000000,-1,-0.055844,0.232126,-0.224151,0.150612,-0.088800,0.092046
"2018-06-07 01:53:11.030 +0000",1528336391.030115,1.335331,-1.223783,0.857707,0.330706,0.940393,-0.079342,0.000000,0.000000,0.000000,-1,0.032399,0.381181,-0.107750,0.115598,-0.070764,0.068752
"2018-06-07 01:53:11.040 +0000",1528336391.040188,1.336409,-1.224330,0.853941,0.330290,0.940579,-0.078865,0.000000,0.000000,0.000000,-1,0.133992,0.477959,-0.081885,0.097337,-0.097424,0.064537
"2018-06-07 01:53:11.050 +0000",1528336391.050262,1.335632,-1.224915,0.847670,0.329694,0.940777,-0.078994,0.000000,0.000000,0.000000,-1,0.210880,0.514534,-0.114224,0.091434,-0.138256,0.080001
"2018-06-07 01:53:11.060 +0000",1528336391.060335,1.331934,-1.225968,0.838939,0.328437,0.941134,-0.079978,0.000000,0.000000,0.000000,-1,0.270474,0.406387,-0.201803,0.077432,-0.212008,0.075675
"2018-06-07 01:53:11.070 +0000",1528336391.070408,1.321934,-1.229759,0.826731,0.324161,0.942408,-0.082379,0.000000,0.000000,0.000000,-1,0.325199,0.044767,-0.581607,0.016537,-0.331477,0.056607
"2018-06-07 01:53:11.080 +0000",1528336391.080482,1.294602,-1.240714,0.801680,0.311837,0.946016,-0.088387,0.000000,0.000000,0.000000,-1,0.591601,-0.527843,-1.555190,-0.110878,-0.285661,0.039894
"2018-06-07 01:53:11.091 +0000",1528336391.090555,1.222463,-1.263675,0.740297,0.284159,0.953208,-0.103190,0.000000,0.000000,0.000000,-1,1.352885,-1.721071,-3.158813,-0.191554,-0.093024,-0.003591
"2018-06-07 01:53:11.101 +0000",1528336391.100629,1.100302,-1.289702,0.634361,0.247265,0.960752,-0.125756,0.000000,0.000000,0.000000,-1,1.828979,-2.034190,-3.568484,0.001026,0.135454,0.067803
"2018-06-07 01:53:11.111 +0000",1528336391.110702,0.975865,-1.306778,0.523451,0.216125,0.965349,-0.146256,0.000000,0.000000,0.000000,-1,1.612444,-1.680263,-2.769905,0.295289,-0.268251,0.286088
"2018-06-07 01:53:11.121 +0000",1528336391.120775,0.835725,-1.317529,0.402999,0.185867,0.968099,-0.168041,0.000000,0.000000,0.000000,-1,1.913279,-2.775854,-2.828639,0.377015,-0.592931,-0.065007
"2018-06-07 01:53:11.131 +0000",1528336391.130849,0.604064,-1.320043,0.214310,0.140937,0.968726,-0.204222,0.000000,0.000000,0.000000,-1,3.201499,-5.495636,-3.926978,0.246911,0.107293,-0.601626
"2018-06-07 01:53:11.141 +0000",1528336391.140922,0.323018,-1.305358,-0.002544,0.083272,0.964978,-0.248763,0.000000,0.000000,0.000000,-1,3.854471,-7.561508,-4.312035,0.404445,0.466785,-0.366807
"2018-06-07 01:53:11.151 +0000",1528336391.150995,0.078159,-1.279057,-0.172877,0.022457,0.957745,-0.286739,0.000000,0.000000,0.000000,-1,3.238958,-7.993301,-3.846127,0.559437,0.082904,0.109783
"2018-06-07 01:53:11.161 +0000",1528336391.161069,-0.087379,-1.264171,-0.278210,-0.026341,0.953358,-0.300691,0.000000,0.000000,0.000000,-1,0.750396,-5.656204,-2.862322,0.488881,0.000515,0.787538
"2018-06-07 01:53:11.171 +0000",1528336391.171142,-0.208850,-1.268357,-0.380353,-0.061754,0.954613,-0.291377,0.000000,0.000000,0.000000,-1,-1.287993,-1.310704,-3.028948,0.208880,-0.332588,1.286875
"2018-06-07 01:53:11.181 +0000",1528336391.181215,-0.308772,-1.280131,-0.493429,-0.087091,0.958053,-0.273035,0.000000,0.000000,0.000000,-1,-2.109703,1.260134,-2.753903,0.192270,-0.302734,0.816736
"2018-06-07 01:53:11.191 +0000",1528336391.191289,-0.396225,-1.294081,-0.592417,-0.105437,0.961958,-0.252030,0.000000,0.000000,0.000000,-1,-2.307351,0.305981,-1.791373,0.276030,-0.454146,-0.056808
"2018-06-07 01:53:11.201 +0000",1528336391.201362,-0.463120,-1.314959,-0.649257,-0.113050,0.967452,-0.226399,0.000000,0.000000,0.000000,-1,-2.477149,-1.623792,-0.094927,0.184156,-1.090148,-0.530452
"2018-06-07 01:53:11.211 +0000",1528336391.211435,-0.510447,-1.336837,-0.671077,-0.113265,0.972756,-0.202278,0.000000,0.000000,0.000000,-1,-2.079993,-2.892966,0.728718,-0.060289,-1.119378,-0.362434
"2018-06-07 01:53:11.222 +0000",1528336391.221509,-0.551950,-1.359491,-0.680388,-0.109975,0.977758,-0.178592,0.000000,0.000000,0.000000,-1,-2.056396,-3.224379,0.979401,-0.355952,-0.719366,0.046527
"2018-06-07 01:53:11.232 +0000",1528336391.231582,-0.594684,-1.382583,-0.694114,-0.104825,0.982340,-0.154984,0.000000,0.000000,0.000000,-1,-2.050851,-2.759081,1.020540,-0.406054,-0.499766,0.494019
"2018-06-07 01:53:11.242 +0000",1528336391.241655,-0.631542,-1.402622,-0.706280,-0.098822,0.985892,-0.135098,0.000000,0.000000,0.000000,-1,-1.629320,-2.427119,0.934489,-0.289865,-0.292075,0.503537
"2018-06-07 01:53:11.252 +0000",1528336391.251729,-0.655812,-1.418290,-0.704807,-0.092638,0.988393,-0.120401,0.000000,0.000000,0.000000,-1,-1.067521,-2.614543,0.974608,-0.080122,-0.335424,0.235040
"2018-06-07 01:53:11.262 +0000",1528336391.261802,-0.670295,-1.428328,-0.691541,-0.088205,0.989869,-0.111267,0.000000,0.000000,0.000000,-1,-0.578441,-2.784108,0.634166,-0.004187,0.189880,0.130905
"2018-06-07 01:53:11.272 +0000",1528336391.271876,-0.712472,-1.431463,-0.707539,-0.090789,0.990309,-0.105100,0.000000,0.000000,0.000000,-1,-0.339336,-2.430935,-0.181769,0.034209,0.672960,0.125302
"2018-06-07 01:53:11.282 +0000",1528336391.281949,-0.782313,-1.431716,-0.766769,-0.097725,0.990344,-0.098330,0.000000,0.000000,0.000000,-1,-0.687278,-0.626339,-0.641477,0.358879,0.983121,-0.057142
"2018-06-07 01:53:11.292 +0000",1528336391.292022,-0.843367,-1.434390,-0.833496,-0.101564,0.990711,-0.090423,0.000000,0.000000,0.000000,-1,-0.852934,0.806600,-0.309933,0.706743,0.250668,-0.151277
"2018-06-07 01:53:11.302 +0000",1528336391.302096,-0.842931,-1.442631,-0.848387,-0.095425,0.991798,-0.085031,0.000000,0.000000,0.000000,-1,-0.640292,1.687553,0.750578,0.724057,-0.531547,-0.106314
"2018-06-07 01:53:11.312 +0000",1528336391.312169,-0.776911,-1.460567,-0.799410,-0.077122,0.993931,-0.078442,0.000000,0.000000,0.000000,-1,-0.878509,1.649996,1.958963,0.619785,-0.921421,0.050335
"2018-06-07 01:53:11.322 +0000",1528336391.322243,-0.697351,-1.480476,-0.730152,-0.057922,0.995924,-0.069138,0.000000,0.000000,0.000000,-1,-1.037967,0.848491,1.622471,0.281005,0.132998,0.041947
"2018-06-07 01:53:11.332 +0000",1528336391.332317,-0.749016,-1.491391,-0.783615,-0.054009,0.996849,-0.058090,0.000000,0.000000,0.000000,-1,-1.128081,-0.107436,-0.065639,-0.179664,1.749535,0.014846
"2018-06-07 01:53:11.342 +0000",1528336391.342390,-0.988693,-1.491481,-1.014819,-0.066181,0.996856,-0.043559,0.000000,0.000000,0.000000,-1,-1.509134,-1.163069,-1.468327,-0.284954,1.436387,-0.129155
"2018-06-07 01:53:11.352 +0000",1528336391.352463,-1.293988,-1.480613,-1.305542,-0.086633,0.995936,-0.024612,0.000000,0.000000,0.000000,-1,-1.825254,-1.606991,-2.101373,-0.258445,0.797048,-0.071030
"2018-06-07 01:53:11.363 +0000",1528336391.362537,-1.525551,-1.460848,-1.522188,-0.109614,0.993962,-0.004963,0.000000,0.000000,0.000000,-1,-1.768075,-1.571959,-2.302548,-0.181050,0.607234,0.073750
"2018-06-07 01:53:11.373 +0000",1528336391.372610,-1.663734,-1.437289,-1.645584,-0.132537,0.991101,0.012353,0.000000,0.000000,0.000000,-1,-1.455297,-1.559129,-2.275260,0.025237,0.537677,0.002021
"2018-06-07 01:53:11.383 +0000",1528336391.382683,-1.741363,-1.415422,-1.708195,-0.152505,0.987954,0.026267,0.000000,0.000000,0.000000,-1,-1.080848,-1.557321,-1.934058,0.239831,0.502204,-0.159431
"2018-06-07 01:53:11.393 +0000",1528336391.392757,-1.786721,-1.398376,-1.738577,-0.167584,0.985172,0.036759,0.000000,0.000000,0.000000,-1,-0.712880,-1.497990,-1.439931,0.388195,0.480053,-0.325974
"2018-06-07 01:53:11.403 +0000",1528336391.402830,-1.808126,-1.387560,-1.747634,-0.177105,0.983259,0.042840,0.000000,0.000000,0.000000,-1,-0.282871,-1.127092,-0.856837,0.424892,0.376635,-0.382226
"2018-06-07 01:53:11.413 +0000",1528336391.412904,-1.804923,-1.384390,-1.737425,-0.180273,0.982677,0.042995,0.000000,0.000000,0.000000,-1,0.240703,-0.517023,-0.177529,0.358648,0.171498,-0.316478
"2018-06-07 01:53:11.423 +0000",1528336391.422977,-1.779676,-1.388277,-1.711163,-0.177563,0.983389,0.037638,0.000000,0.000000,0.000000,-1,0.630629,0.088715,0.398810,0.227718,0.077356,-0.196970
"2018-06-07 01:53:11.433 +0000",1528336391.433050,-1.740916,-1.396168,-1.676340,-0.171234,0.984791,0.029415,0.000000,0.000000,0.000000,-1,0.777909,0.553228,0.721442,0.067673,0.157665,-0.048305
"2018-06-07 01:53:11.443 +0000",1528336391.443124,-1.691501,-1.406147,-1.634368,-0.162713,0.986476,0.019736,0.000000,0.000000,0.000000,-1,0.859000,0.872042,0.927632,-0.035407,0.228368,0.027215
"2018-06-07 01:53:11.453 +0000",1528336391.453197,-1.628168,-1.417495,-1.580923,-0.152451,0.988272,0.008756,0.000000,0.000000,0.000000,-1,0.966782,1.102200,1.088325,-0.061172,0.222986,0.012774
"2018-06-07 01:53:11.463 +0000",1528336391.463270,-1.544102,-1.429769,-1.509030,-0.140510,0.990072,-0.003752,0.000000,0.000000,0.000000,-1,1.105130,1.352271,1.232872,-0.057869,0.169886,-0.003634
"2018-06-07 01:53:11.473 +0000",1528336391.473344,-1.429717,-1.441609,-1.409535,-0.127549,0.991667,-0.018115,0.000000,0.000000,0.000000,-1,1.266096,1.636760,1.300021,-0.038665,0.038530,-0.033582
"2018-06-07 01:53:11.483 +0000",1528336391.483417,-1.278388,-1.452184,-1.275791,-0.113311,0.992974,-0.034111,0.000000,0.000000,0.000000,-1,1.411085,1.911199,1.397296,0.009551,-0.116784,-0.051690
"2018-06-07 01:53:11.493 +0000",1528336391.493490,-1.134182,-1.458475,-1.151264,-0.101570,0.993699,-0.047398,0.000000,0.000000,0.000000,-1,0.874036,2.030439,0.878260,0.033867,-0.227738,0.011311
"2018-06-07 01:53:11.504 +0000",1528336391.503564,-1.086991,-1.459497,-1.121704,-0.098322,0.993813,-0.051664,0.000000,0.000000,0.000000,-1,0.106599,1.665095,0.056088,0.045267,-0.226051,0.193556
"2018-06-07 01:53:11.514 +0000",1528336391.513637,-1.086124,-1.457116,-1.134050,-0.100372,0.993545,-0.052852,0.000000,0.000000,0.000000,-1,-0.011653,1.175765,-0.350583,0.132659,-0.180252,0.230068
"2018-06-07 01:53:11.524 +0000",1528336391.523711,-1.090264,-1.452845,-1.146200,-0.104351,0.993052,-0.054397,0.000000,0.000000,0.000000,-1,0.103040,0.657255,-0.450238,0.210079,-0.200190,0.231063
"2018-06-07 01:53:11.534 +0000",1528336391.533784,-1.092539,-1.449130,-1.150919,-0.107750,0.992608,-0.055857,0.000000,0.000000,0.000000,-1,0.105607,0.101184,-0.305573,0.277214,-0.219811,0.206400
"2018-06-07 01:53:11.544 +0000",1528336391.543857,-1.103301,-1.447992,-1.159725,-0.109352,0.992469,-0.055203,0.000000,0.000000,0.000000,-1,-0.106742,-0.275710,-0.098584,0.282982,-0.140495,0.177243
"2018-06-07 01:53:11.554 +0000",1528336391.553931,-1.131650,-1.449445,-1.184526,-0.109567,0.992646,-0.051468,0.000000,0.000000,0.000000,-1,-0.405845,-0.385718,0.020102,0.225946,-0.022965,0.150375
"2018-06-07 01:53:11.564 +0000",1528336391.564004,-1.177642,-1.451749,-1.227196,-0.109705,0.992922,-0.045500,0.000000,0.000000,0.000000,-1,-0.592601,-0.343291,-0.011616,0.181696,0.058775,0.088591
"2018-06-07 01:53:11.574 +0000",1528336391.574077,-1.231402,-1.453420,-1.278398,-0.110427,0.993119,-0.038987,0.000000,0.000000,0.000000,-1,-0.619472,-0.276128,-0.076974,0.183532,0.063857,0.012757
"2018-06-07 01:53:11.584 +0000",1528336391.584151,-1.283587,-1.454156,-1.328294,-0.111610,0.993205,-0.032967,0.000000,0.000000,0.000000,-1,-0.549873,-0.261506,-0.114738,0.196037,0.021870,-0.055824
"2018-06-07 01:53:11.594 +0000",1528336391.594224,-1.325716,-1.454472,-1.367487,-0.112595,0.993242,-0.028161,0.000000,0.000000,0.000000,-1,-0.406202,-0.342506,-0.075504,0.218598,-0.020982,-0.111838
"2018-06-07 01:53:11.604 +0000",1528336391.604297,-1.353338,-1.454885,-1.391090,-0.112928,0.993290,-0.024952,0.000000,0.000000,0.000000,-1,-0.228106,-0.434522,-0.004111,0.230482,-0.058399,-0.138485
"2018-06-07 01:53:11.614 +0000",1528336391.614371,-1.366740,-1.455410,-1.400194,-0.112743,0.993350,-0.023331,0.000000,0.000000,0.000000,-1,-0.080322,-0.424397,0.035379,0.198818,-0.014087,-0.118698
"2018-06-07 01:53:11.624 +0000",1528336391.624444,-1.372417,-1.455788,-1.402625,-0.112505,0.993394,-0.022616,0.000000,0.000000,0.000000,-1,-0.025784,-0.281505,0.028140,0.149111,0.043258,-0.070966
"2018-06-07 01:53:11.635 +0000",1528336391.634517,-1.374942,-1.455990,-1.403548,-0.112364,0.993417,-0.022293,0.000000,0.000000,0.000000,-1,-0.009019,-0.120025,0.013512,0.118101,0.063392,-0.039017
"2018-06-07 01:53:11.645 +0000",1528336391.644591,-1.370698,-1.456289,-1.399334,-0.111977,0.993451,-0.022710,0.000000,0.000000,0.000000,-1,0.059848,0.043571,0.052554,0.134850,0.015963,-0.026118
"2018-06-07 01:53:11.655 +0000",1528336391.654664,-1.358333,-1.456998,-1.388009,-0.110999,0.993532,-0.023945,0.000000,0.000000,0.000000,-1,0.123439,0.121469,0.105341,0.146858,0.008314,-0.023785
"2018-06-07 01:53:11.665 +0000",1528336391.664737,-1.344776,-1.457721,-1.375329,-0.109965,0.993614,-0.025286,0.000000,0.000000,0.000000,-1,0.118292,0.081971,0.096633,0.123973,0.051186,-0.021329
"2018-06-07 01:53:11.675 +0000",1528336391.674811,-1.334430,-1.458204,-1.365353,-0.109230,0.993668,-0.026310,0.000000,0.000000,0.000000,-1,0.091291,0.028245,0.063193,0.117485,0.040725,-0.010342
"2018-06-07 01:53:11.685 +0000",1528336391.684884,0.300011,-1.421801,0.261187,0.043870,0.988921,-0.141813,0.000000,0.000000,0.000000,-1,0.066369,-0.071617,0.038220,-0.028931,0.031480,0.108641
"2018-06-07 01:53:11.695 +0000",1528336391.694958,0.431272,-1.414475,0.392264,0.065080,0.987807,-0.141429,0.000000,0.000000,0.000000,-1,0.071810,-0.147284,0.022929,-0.036683,-0.020674,0.119990
"2018-06-07 01:53:11.705 +0000",1528336391.705031,0.420489,-1.436966,0.383395,0.054467,0.991058,-0.121807,0.000000,0.000000,0.000000,-1,0.063631,-0.191118,-0.000844,-0.026361,0.016419,0.121914
"2018-06-07 01:53:11.715 +0000",1528336391.715104,0.380491,-1.456611,0.345628,0.042314,0.993488,-0.105790,0.000000,0.000000,0.000000,-1,0.028037,-0.193349,-0.015828,-0.007051,0.046734,0.125504
"2018-06-07 01:53:11.725 +0000",1528336391.725178,0.384577,-1.469890,0.351440,0.037792,0.994913,-0.093376,0.000000,0.000000,0.000000,-1,-0.000240,-0.175810,-0.028620,0.014546,0.005560,0.123146
"2018-06-07 01:53:11.735 +0000",1528336391.735251,0.411975,-1.478496,0.380478,0.036907,0.995743,-0.084458,0.000000,0.000000,0.000000,-1,-0.006472,-0.180183,-0.037224,0.035557,-0.015290,0.109040
"2018-06-07 01:53:11.745 +0000",1528336391.745324,0.396327,-1.486186,0.366605,0.032623,0.996423,-0.077959,0.000000,0.000000,0.000000,-1,-0.005475,-0.168127,-0.031813,0.058227,-0.035073,0.101442
"2018-06-07 01:53:11.755 +0000",1528336391.755398,0.383035,-1.493146,0.354763,0.028991,0.996987,-0.071950,0.000000,0.000000,0.000000,-1,-0.014180,-0.128776,0.002742,0.065567,-0.052422,0.108068
"2018-06-07 01:53:11.765 +0000",1528336391.765471,0.389442,-1.498434,0.361836,0.027450,0.997383,-0.066885,0.000000,0.000000,0.000000,-1,-0.029214,-0.045524,0.035288,0.059541,-0.038231,0.114386
"2018-06-07 01:53:11.776 +0000",1528336391.775544,0.429147,-1.503033,0.401524,0.028174,0.997705,-0.061571,0.000000,0.000000,0.000000,-1,-0.051472,0.008123,0.054857,0.047296,-0.017694,0.104738
"2018-06-07 01:53:11.786 +0000",1528336391.785618,0.483312,-1.508739,0.455280,0.028820,0.998075,-0.054913,0.000000,0.000000,0.000000,-1,-0.063146,0.038779,0.066805,0.034840,-0.019575,0.084912
"2018-06-07 01:53:11.796 +0000",1528336391.795691,0.562230,-1.514456,0.533836,0.030014,0.998413,-0.047637,0.000000,0.000000,0.000000,-1,-0.069447,0.020090,0.068916,0.014511,-0.015900,0.065368
"2018-06-07 01:53:11.806 +0000",1528336391.805764,0.677327,-1.518687,0.648841,0.032638,0.998643,-0.040582,0.000000,0.000000,0.000000,-1,-0.072526,-0.011731,0.063452,-0.006576,-0.014893,0.047631
"2018-06-07 01:53:11.816 +0000",1528336391.815838,0.809775,-1.520129,0.781457,0.036668,0.998717,-0.034923,0.000000,0.000000,0.000000,-1,-0.070350,-0.029257,0.055867,-0.025178,-0.012358,0.041484
"2018-06-07 01:53:11.826 +0000",1528336391.825911,0.943477,-1.519389,0.915230,0.041598,0.998679,-0.030159,0.000000,0.000000,0.000000,-1,-0.067037,-0.017078,0.033306,-0.041521,0.003976,0.040123
"2018-06-07 01:53:11.836 +0000",1528336391.835985,1.068474,-1.518363,1.040274,0.045935,0.998626,-0.025233,0.000000,0.000000,0.000000,-1,-0.074290,-0.018142,0.020412,-0.041372,0.005113,0.031321
"2018-06-07 01:53:11.846 +0000",1528336391.846058,1.176652,-1.517786,1.148673,0.048924,0.998595,-0.020348,0.000000,0.000000,0.000000,-1,-0.073226,-0.040099,0.021421,-0.031468,-0.005752,0.021004
"2018-06-07 01:53:11.856 +0000",1528336391.856131,1.263321,-1.517559,1.236260,0.050717,0.998583,-0.016105,0.000000,0.000000,0.000000,-1,-0.074145,-0.124602,0.014724,-0.021939,-0.011156,0.014427
"2018-06-07 01:53:11.866 +0000",1528336391.866205,1.322749,-1.517650,1.297675,0.051496,0.998588,-0.013042,0.000000,0.000000,0.000000,-1,-0.071873,-0.224451,0.004747,-0.017423,0.000527,0.013546
"2018-06-07 01:53:11.876 +0000",1528336391.876278,1.358276,-1.518620,1.335764,0.050979,0.998639,-0.011000,0.000000,0.000000,0.000000,-1,-0.064435,-0.261727,-0.001832,-0.020538,0.009494,0.030608
"2018-06-07 01:53:11.886 +0000",1528336391.886351,1.380979,-1.520375,1.360868,0.049493,0.998729,-0.009509,0.000000,0.000000,0.000000,-1,-0.070772,-0.225519,-0.001712,-0.017755,0.012990,0.048144
"2018-06-07 01:53:11.896 +0000",1528336391.896425,1.406711,-1.522755,1.388358,0.047381,0.998846,-0.007845,0.000000,0.000000,0.000000,-1,-0.097182,-0.155381,0.009309,-0.010638,0.012018,0.054628
"2018-06-07 01:53:11.906 +0000",1528336391.906498,1.441020,-1.525567,1.423855,0.044834,0.998977,-0.005851,0.000000,0.000000,0.000000,-1,-0.117269,-0.106083,0.020255,-0.001743,-0.002380,0.047813
"2018-06-07 01:53:11.917 +0000",1528336391.916571,1.473030,-1.527654,1.456681,0.042919,0.999070,-0.004209,0.000000,0.000000,0.000000,-1,-0.106874,-0.070966,0.030014,0.004139,-0.015183,0.035627
"2018-06-07 01:53:11.927 +0000",1528336391.926645,1.500353,-1.528770,1.484868,0.041905,0.999117,-0.002957,0.000000,0.000000,0.000000,-1,-0.111023,-0.099506,0.026713,0.008174,-0.015688,0.025174
"2018-06-07 01:53:11.937 +0000",1528336391.936718,1.529779,-1.529297,1.516198,0.041452,0.999139,-0.001701,0.000000,0.000000,0.000000,-1,-0.127679,-0.202714,0.019997,0.022375,-0.030633,0.005501
"2018-06-07 01:53:11.947 +0000",1528336391.946791,1.556815,-1.529344,1.545170,0.041434,0.999141,-0.000579,0.000000,0.000000,0.000000,-1,-0.113079,-0.187355,0.031841,0.020989,-0.027416,0.021606
"2018-06-07 01:53:11.957 +0000",1528336391.956865,1.602253,-1.529397,1.592325,0.041366,0.999143,0.001302,0.000000,0.000000,0.000000,-1,-0.121674,-0.160025,0.053453,0.009660,-0.021619,0.029887
"2018-06-07 01:53:11.967 +0000",1528336391.966938,1.661442,-1.529147,1.652574,0.041464,0.999133,0.003769,0.000000,0.000000,0.000000,-1,-0.116453,-0.085340,0.048280,-0.002294,-0.003436,0.034821
"2018-06-07 01:53:11.977 +0000",1528336391.977012,1.725537,-1.528776,1.716948,0.041497,0.999117,0.006473,0.000000,0.000000,0.000000,-1,-0.131055,-0.012834,0.025936,-0.029137,0.033186,0.037640
"2018-06-07 01:53:11.987 +0000",1528336391.987085,1.785289,-1.528009,1.776724,0.041788,0.999085,0.009103,0.000000,0.000000,0.000000,-1,-0.146787,-0.002980,0.021698,-0.024607,0.002090,0.017569
"2018-06-07 01:53:11.997 +0000",1528336391.997158,1.831606,-1.527138,1.823264,0.042163,0.999047,0.011253,0.000000,0.000000,0.000000,-1,-0.140376,-0.030361,0.010847,-0.027240,0.006217,-0.007804
"2018-06-07 01:53:12.007 +0000",1528336392.007232,1.863847,-1.526389,1.856112,0.042495,0.999014,0.012822,0.000000,0.000000,0.000000,-1,-0.120286,-0.065380,-0.002209,-0.033629,0.004587,-0.019444
"2018-06-07 01:53:12.017 +0000",1528336392.017305,1.874153,-1.525446,1.867261,0.043257,0.998972,0.013540,0.000000,0.000000,0.000000,-1,-0.097088,-0.081741,-0.011990,-0.032545,0.004034,-0.024359
"2018-06-07 01:53:12.027 +0000",1528336392.027378,1.892279,-1.524633,1.886158,0.043768,0.998935,0.014576,0.000000,0.000000,0.000000,-1,-0.079129,-0.068454,-0.027052,-0.022208,0.001340,-0.024510
"2018-06-07 01:53:12.037 +0000",1528336392.037452,1.914379,-1.524310,1.908711,0.043739,0.998920,0.015649,0.000000,0.000000,0.000000,-1,-0.053909,-0.037624,-0.032398,-0.011024,-0.003909,-0.015099
"2018-06-07 01:53:12.048 +0000",1528336392.047525,1.939867,-1.524346,1.934421,0.043291,0.998921,0.016745,0.000000,0.000000,0.000000,-1,-0.042406,-0.020046,-0.028071,0.002958,-0.005269,-0.008368
"2018-06-07 01:53:12.058 +0000",1528336392.057598,1.973604,-1.525089,1.968342,0.042022,0.998956,0.017906,0.000000,0.000000,0.000000,-1,-0.048731,-0.021175,-0.024833,0.012024,0.000220,-0.000664
"2018-06-07 01:53:12.068 +0000",1528336392.067672,1.998681,-1.525686,1.993657,0.041018,0.998983,0.018707,0.000000,0.000000,0.000000,-1,-0.060308,-0.023416,-0.021586,0.015088,0.009425,0.004746
"2018-06-07 01:53:12.078 +0000",1528336392.077745,2.013580,-1.526478,2.008803,0.040021,0.999018,0.018977,0.000000,0.000000,0.000000,-1,-0.069779,-0.022354,-0.019410,0.017764,0.010046,0.006291
"2018-06-07 01:53:12.088 +0000",1528336392.087818,2.024619,-1.527427,2.020153,0.038960,0.999060,0.019004,0.000000,0.000000,0.000000,-1,-0.069826,-0.033363,-0.011912,0.021892,0.005182,0.001824
"2018-06-07 01:53:12.098 +0000",1528336392.097892,2.032066,-1.528242,2.028078,0.038094,0.999095,0.018934,0.000000,0.000000,0.000000,-1,-0.067767,-0.049855,-0.004435,0.029213,0.000661,-0.005918
"2018-06-07 01:53:12.108 +0000",1528336392.107965,2.033244,-1.528669,2.029855,0.037691,0.999113,0.018789,0.000000,0.000000,0.000000,-1,-0.053160,-0.059753,0.009486,0.035886,-0.006254,-0.010610
"2018-06-07 01:53:12.118 +0000",1528336392.118038,2.031373,-1.528653,2.028571,0.037742,0.999112,0.018726,0.000000,0.000000,0.000000,-1,-0.033291,-0.054254,0.020213,0.036691,-0.006940,-0.011127
"2018-06-07 01:53:12.128 +0000",1528336392.128112,2.025704,-1.528125,2.023413,0.038321,0.999090,0.018744,0.000000,0.000000,0.000000,-1,-0.027136,-0.047727,0.038504,0.031458,0.000330,-0.009878
"2018-06-07 01:53:12.138 +0000",1528336392.138185,2.022718,-1.527279,2.020743,0.039137,0.999053,0.018998,0.000000,0.000000,0.000000,-1,-0.029293,-0.023600,0.042882,0.019197,0.005356,-0.007524
"2018-06-07 01:53:12.148 +0000",1528336392.148259,2.020664,-1.526328,2.018624,0.040032,0.999011,0.019331,0.000000,0.000000,0.000000,-1,-0.019935,0.014816,0.050501,0.004218,0.007199,-0.003920
"2018-06-07 01:53:12.158 +0000",1528336392.158332,2.015206,-1.525396,2.012771,0.040977,0.998970,0.019512,0.000000,0.000000,0.000000,-1,0.001012,0.043398,0.054839,-0.008827,0.005974,-0.001156
"2018-06-07 01:53:12.168 +0000",1528336392.168405,2.004067,-1.524504,2.001113,0.042003,0.998929,0.019430,0.000000,0.000000,0.000000,-1,0.015669,0.050003,0.060203,-0.020565,0.001636,0.003122
"2018-06-07 01:53:12.178 +0000",1528336392.178479,1.988697,-1.523533,1.985338,0.043183,0.998883,0.019176,0.000000,0.000000,0.000000,-1,0.012522,0.036817,0.061248,-0.029419,0.001101,0.006368
"2018-06-07 01:53:12.189 +0000",1528336392.188552,1.973572,-1.522495,1.969941,0.044417,0.998834,0.018925,0.000000,0.000000,0.000000,-1,0.002106,0.023655,0.051552,-0.037948,0.002418,0.011089
"2018-06-07 01:53:12.199 +0000",1528336392.198625,1.961890,-1.521579,1.958090,0.045481,0.998789,0.018753,0.000000,0.000000,0.000000,-1,-0.005123,0.016014,0.036488,-0.042643,0.003561,0.016586
"2018-06-07 01:53:12.209 +0000",1528336392.208699,1.952687,-1.520894,1.948754,0.046285,0.998755,0.018588,0.000000,0.000000,0.000000,-1,-0.000848,0.016066,0.026797,-0.038945,0.001169,0.018063
"2018-06-07 01:53:12.219 +0000",1528336392.218772,1.945733,-1.520530,1.941695,0.046752,0.998737,0.018399,0.000000,0.000000,0.000000,-1,0.007598,0.006228,0.022447,-0.032180,-0.002384,0.019427
"2018-06-07 01:53:12.229 +0000",1528336392.228845,1.942407,-1.520407,1.938338,0.046929,0.998731,0.018289,0.000000,0.000000,0.000000,-1,0.004442,0.002921,0.023520,-0.025139,-0.004590,0.021399
"2018-06-07 01:53:12.239 +0000",1528336392.238919,1.942920,-1.520468,1.938805,0.046863,0.998734,0.018291,0.000000,0.000000,0.000000,-1,-0.001850,0.000713,0.022452,-0.021030,-0.001282,0.022572
"2018-06-07 01:53:12.249 +0000",1528336392.248992,1.946884,-1.520648,1.942660,0.046623,0.998743,0.018411,0.000000,0.000000,0.000000,-1,-0.002962,0.012758,0.028944,-0.016914,0.004233,0.020408
"2018-06-07 01:53:12.259 +0000",1528336392.259065,1.953207,-1.520890,1.948801,0.046280,0.998755,0.018614,0.000000,0.000000,0.000000,-1,-0.006120,0.020433,0.028973,-0.015259,0.005991,0.017549
"2018-06-07 01:53:12.269 +0000",1528336392.269139,1.961878,-1.521171,1.957081,0.045858,0.998769,0.018908,0.000000,0.000000,0.000000,-1,-0.007241,0.042358,0.035493,-0.019674,0.008113,0.017622
"2018-06-07 01:53:12.279 +0000",1528336392.279212,1.971570,-1.521493,1.966158,0.045380,0.998785,0.019228,0.000000,0.000000,0.000000,-1,0.001153,0.067639,0.033396,-0.023819,0.006754,0.016371
"2018-06-07 01:53:12.289 +0000",1528336392.289286,1.978586,-1.521797,1.972346,0.044965,0.998800,0.019425,0.000000,0.000000,0.000000,-1,0.016937,0.080879,0.028021,-0.024686,0.003871,0.014938
"2018-06-07 01:53:12.299 +0000",1528336392.299359,1.983318,-1.522073,1.976299,0.044621,0.998813,0.019528,0.000000,0.000000,0.000000,-1,0.023306,0.072146,0.020451,-0.022938,0.001568,0.011295
"2018-06-07 01:53:12.309 +0000",1528336392.309432,1.987227,-1.522288,1.979633,0.044344,0.998824,0.019613,0.000000,0.000000,0.000000,-1,0.026547,0.046943,0.011765,-0.015231,0.003725,0.005823
"2018-06-07 01:53:12.320 +0000",1528336392.319506,1.989776,-1.522508,1.981817,0.044093,0.998834,0.019637,0.000000,0.000000,0.000000,-1,0.032899,0.029414,0.007397,-0.005168,0.004477,0.004289
"2018-06-07 01:53:12.330 +0000",1528336392.329579,1.990374,-1.522692,1.982140,0.043917,0.998843,0.019590,0.000000,0.000000,0.000000,-1,0.034997,0.023927,0.008452,0.006315,0.002866,0.006411
"2018-06-07 01:53:12.340 +0000",1528336392.339652,1.990085,-1.522846,1.981527,0.043783,0.998851,0.019515,0.000000,0.000000,0.000000,-1,0.033921,0.033795,0.010634,0.014994,0.001195,0.007478
"2018-06-07 01:53:12.350 +0000",1528336392.349726,1.989310,-1.523033,1.980195,0.043623,0.998860,0.019403,0.000000,0.000000,0.000000,-1,0.040158,0.057940,0.016069,0.021014,-0.000874,0.005744
"2018-06-07 01:53:12.360 +0000",1528336392.359798,1.987045,-1.523244,1.977193,0.043477,0.998870,0.019220,0.000000,0.000000,0.000000,-1,0.045330,0.072190,0.024703,0.027720,-0.002425,0.001257
"2018-06-07 01:53:12.370 +0000",1528336392.369872,1.983503,-1.523395,1.972991,0.043407,0.998877,0.019006,0.000000,0.000000,0.000000,-1,0.045258,0.061167,0.035428,0.030079,-0.002310,-0.006341
"2018-06-07 01:53:12.380 +0000",1528336392.379946,1.977121,-1.523404,1.965988,0.043517,0.998877,0.018724,0.000000,0.000000,0.000000,-1,0.049353,0.060022,0.049399,0.030854,-0.003577,-0.009248
"2018-06-07 01:53:12.390 +0000",1528336392.390018,1.965667,-1.523349,1.953863,0.043776,0.998875,0.018244,0.000000,0.000000,0.000000,-1,0.064036,0.065543,0.051532,0.028734,-0.004948,-0.008890
"2018-06-07 01:53:12.400 +0000",1528336392.400092,1.949934,-1.523176,1.937457,0.044213,0.998866,0.017615,0.000000,0.000000,0.000000,-1,0.075586,0.061179,0.052569,0.030402,-0.008693,-0.002829
"2018-06-07 01:53:12.410 +0000",1528336392.410166,1.932250,-1.522828,1.919281,0.044839,0.998850,0.016952,0.000000,0.000000,0.000000,-1,0.080857,0.041434,0.052499,0.031928,-0.014414,0.001328
"2018-06-07 01:53:12.420 +0000",1528336392.420238,1.914914,-1.522329,1.901588,0.045593,0.998826,0.016340,0.000000,0.000000,0.000000,-1,0.075592,0.029331,0.055703,0.031815,-0.016999,0.008090
"2018-06-07 01:53:12.430 +0000",1528336392.430313,1.900054,-1.521696,1.886557,0.046430,0.998795,0.015865,0.000000,0.000000,0.000000,-1,0.056696,0.010612,0.056768,0.030505,-0.021363,0.014485
"2018-06-07 01:53:12.440 +0000",1528336392.440386,1.887149,-1.520901,1.873620,0.047387,0.998756,0.015512,0.000000,0.000000,0.000000,-1,0.036724,0.000663,0.060011,0.026709,-0.023566,0.018561
"2018-06-07 01:53:12.450 +0000",1528336392.450459,1.876805,-1.520066,1.863270,0.048341,0.998713,0.015272,0.000000,0.000000,0.000000,-1,0.014700,0.000619,0.055759,0.016585,-0.021052,0.020403
"2018-06-07 01:53:12.461 +0000",1528336392.460533,1.870266,-1.519206,1.856708,0.049262,0.998670,0.015210,0.000000,0.000000,0.000000,-1,-0.004195,0.004967,0.053664,0.008294,-0.015851,0.021747
"2018-06-07 01:53:12.471 +0000",1528336392.470606,1.866231,-1.518457,1.852565,0.050037,0.998631,0.015228,0.000000,0.000000,0.000000,-1,-0.008322,0.013782,0.042942,0.004025,-0.009297,0.018921
"2018-06-07 01:53:12.481 +0000",1528336392.480679,1.864278,-1.517760,1.850503,0.050734,0.998594,0.015332,0.000000,0.000000,0.000000,-1,-0.008236,0.010534,0.032176,0.001863,-0.007154,0.014575
"2018-06-07 01:53:12.491 +0000",1528336392.490753,1.864094,-1.517086,1.850282,0.051384,0.998558,0.015518,0.000000,0.000000,0.000000,-1,-0.015539,0.001754,0.026789,-0.001182,-0.010384,0.010620
"2018-06-07 01:53:12.501 +0000",1528336392.500825,1.866447,-1.516435,1.852731,0.051969,0.998523,0.015829,0.000000,0.000000,0.000000,-1,-0.019678,-0.011403,0.020306,-0.003278,-0.009677,0.003321
"2018-06-07 01:53:12.511 +0000",1528336392.510899,1.868886,-1.515822,1.855258,0.052514,0.998489,0.016135,0.000000,0.000000,0.000000,-1,-0.010203,-0.008070,0.017068,-0.003258,-0.004013,-0.002371
"2018-06-07 01:53:12.521 +0000",1528336392.520973,1.871374,-1.515323,1.857807,0.052951,0.998462,0.016413,0.000000,0.000000,0.000000,-1,-0.004912,-0.005837,0.011684,-0.003925,-0.001498,-0.003397
"2018-06-07 01:53:12.531 +0000",1528336392.531045,1.874069,-1.514982,1.860621,0.053234,0.998443,0.016658,0.000000,0.000000,0.000000,-1,0.001424,-0.015686,0.008414,-0.005352,-0.001937,-0.002742
"2018-06-07 01:53:12.541 +0000",1528336392.541119,1.875865,-1.514773,1.862605,0.053405,0.998431,0.016817,0.000000,0.000000,0.000000,-1,0.010867,-0.022255,0.010524,-0.003204,0.002423,-0.006472
"2018-06-07 01:53:12.551 +0000",1528336392.551193,1.877034,-1.514592,1.864001,0.053556,0.998421,0.016934,0.000000,0.000000,0.000000,-1,0.005582,-0.022288,0.014839,-0.000639,0.005012,-0.006665
"2018-06-07 01:53:12.561 +0000",1528336392.561265,1.878029,-1.514397,1.865087,0.053726,0.998410,0.017046,0.000000,0.000000,0.000000,-1,0.001321,-0.002563,0.020284,0.000839,0.004382,-0.001772
"2018-06-07 01:53:12.571 +0000",1528336392.571340,1.878035,-1.514257,1.864851,0.053861,0.998402,0.017089,0.000000,0.000000,0.000000,-1,0.010756,0.032601,0.018213,0.001284,-0.002583,0.003602
"2018-06-07 01:53:12.581 +0000",1528336392.581413,1.875177,-1.514167,1.861558,0.053994,0.998397,0.016962,0.000000,0.000000,0.000000,-1,0.018083,0.042492,0.020377,0.003120,-0.010497,0.002646
"2018-06-07 01:53:12.591 +0000",1528336392.591486,1.870590,-1.514082,1.856586,0.054157,0.998392,0.016740,0.000000,0.000000,0.000000,-1,0.020173,0.035902,0.022504,0.004620,-0.011210,0.000288
"2018-06-07 01:53:12.602 +0000",1528336392.601560,1.866112,-1.513972,1.851800,0.054337,0.998386,0.016530,0.000000,0.000000,0.000000,-1,0.019114,0.028206,0.024635,0.003082,-0.006275,0.001720
"2018-06-07 01:53:12.612 +0000",1528336392.611633,1.862376,-1.513885,1.847779,0.054481,0.998381,0.016352,0.000000,0.000000,0.000000,-1,0.015980,0.027109,0.022488,0.000878,-0.000136,0.005652
"2018-06-07 01:53:12.622 +0000",1528336392.621706,1.859127,-1.513747,1.844188,0.054664,0.998373,0.016213,0.000000,0.000000,0.000000,-1,0.007551,0.036956,0.024687,-0.001548,0.005411,0.006797
"2018-06-07 01:53:12.632 +0000",1528336392.631780,1.856627,-1.513553,1.841209,0.054891,0.998362,0.016131,0.000000,0.000000,0.000000,-1,0.003330,0.049015,0.025808,-0.003423,0.005132,0.003171
"2018-06-07 01:53:12.642 +0000",1528336392.641853,1.855566,-1.513378,1.839618,0.055075,0.998352,0.016122,0.000000,0.000000,0.000000,-1,0.002325,0.053430,0.019369,-0.006308,-0.000442,-0.003137
"2018-06-07 01:53:12.652 +0000",1528336392.651926,1.854835,-1.513235,1.838372,0.055225,0.998344,0.016122,0.000000,0.000000,0.000000,-1,0.010757,0.049076,0.016110,-0.002201,-0.006156,-0.010202
"2018-06-07 01:53:12.662 +0000",1528336392.662000,1.851340,-1.513127,1.834462,0.055386,0.998338,0.015959,0.000000,0.000000,0.000000,-1,0.026541,0.035956,0.013885,0.007496,-0.009873,-0.015242
"2018-06-07 01:53:12.672 +0000",1528336392.672072,1.845539,-1.513023,1.828350,0.055576,0.998332,0.015665,0.000000,0.000000,0.000000,-1,0.034942,0.029389,0.014922,0.009579,-0.013011,-0.007074
"2018-06-07 01:53:12.682 +0000",1528336392.682146,1.840716,-1.512905,1.823204,0.055766,0.998325,0.015429,0.000000,0.000000,0.000000,-1,0.026513,0.031547,0.018174,0.010106,-0.010364,0.003690
"2018-06-07 01:53:12.692 +0000",1528336392.692220,1.839160,-1.512738,1.821202,0.055948,0.998315,0.015386,0.000000,0.000000,0.000000,-1,0.010734,0.046867,0.019331,0.011801,-0.007211,0.008937
"2018-06-07 01:53:12.702 +0000",1528336392.702292,1.839456,-1.512599,1.820977,0.056079,0.998307,0.015439,0.000000,0.000000,0.000000,-1,0.002345,0.050146,0.017208,0.010953,-0.008958,0.008715
"2018-06-07 01:53:12.712 +0000",1528336392.712367,1.839959,-1.512450,1.821077,0.056214,0.998298,0.015507,0.000000,0.000000,0.000000,-1,-0.003966,0.033649,0.020402,0.012984,-0.010994,0.001217
"2018-06-07 01:53:12.722 +0000",1528336392.722440,1.840522,-1.512324,1.821402,0.056325,0.998291,0.015572,0.000000,0.000000,0.000000,-1,-0.008147,0.020468,0.019297,0.012675,-0.008133,-0.003090
"2018-06-07 01:53:12.733 +0000",1528336392.732512,1.840718,-1.512196,1.821341,0.056445,0.998284,0.015617,0.000000,0.000000,0.000000,-1,-0.014431,0.028149,0.016107,0.008588,-0.006264,-0.004539
"2018-06-07 01:53:12.743 +0000",1528336392.742587,1.839928,-1.512024,1.820197,0.056625,0.998273,0.015619,0.000000,0.000000,0.000000,-1,-0.013359,0.039147,0.011834,0.004578,-0.007734,-0.007180
"2018-06-07 01:53:12.753 +0000",1528336392.752660,1.840131,-1.511831,1.820038,0.056806,0.998262,0.015681,0.000000,0.000000,0.000000,-1,-0.008071,0.035887,0.007510,0.004290,-0.008958,-0.010600
"2018-06-07 01:53:12.763 +0000",1528336392.762733,1.840444,-1.511663,1.820171,0.056960,0.998252,0.015743,0.000000,0.000000,0.000000,-1,-0.001711,0.010674,0.003119,0.007844,-0.007850,-0.015941
"2018-06-07 01:53:12.773 +0000",1528336392.772807,1.840320,-1.511535,1.820103,0.057083,0.998245,0.015769,0.000000,0.000000,0.000000,-1,0.006731,-0.012346,0.000882,0.008621,-0.006286,-0.014213
"2018-06-07 01:53:12.783 +0000",1528336392.782880,1.839914,-1.511401,1.819951,0.057222,0.998237,0.015782,0.000000,0.000000,0.000000,-1,0.005680,-0.028825,0.002987,0.012694,-0.001761,-0.009770
"2018-06-07 01:53:12.793 +0000",1528336392.792953,1.839437,-1.511228,1.819716,0.057397,0.998226,0.015801,0.000000,0.000000,0.000000,-1,-0.004850,-0.018983,0.005191,0.013998,0.000980,-0.000664
"2018-06-07 01:53:12.803 +0000",1528336392.803027,1.839938,-1.511042,1.820213,0.057568,0.998215,0.015879,0.000000,0.000000,0.000000,-1,-0.013286,0.006237,0.006360,0.013187,0.000045,0.004979
"2018-06-07 01:53:12.813 +0000",1528336392.813100,1.840944,-1.510874,1.821012,0.057716,0.998205,0.015983,0.000000,0.000000,0.000000,-1,-0.012276,0.022693,0.009632,0.012947,-0.005774,0.004464
"2018-06-07 01:53:12.823 +0000",1528336392.823174,1.841377,-1.510723,1.821299,0.057853,0.998196,0.016047,0.000000,0.000000,0.000000,-1,-0.012275,0.012808,0.010679,0.010705,-0.010846,0.000203
"2018-06-07 01:53:12.833 +0000",1528336392.833247,1.840791,-1.510571,1.820711,0.058006,0.998187,0.016053,0.000000,0.000000,0.000000,-1,-0.009127,-0.000365,0.012785,0.008141,-0.007297,-0.003709
"2018-06-07 01:53:12.843 +0000",1528336392.843319,1.839225,-1.510409,1.819194,0.058187,0.998177,0.016005,0.000000,0.000000,0.000000,-1,-0.008057,-0.003646,0.010622,0.003458,-0.001595,-0.003997
"2018-06-07 01:53:12.853 +0000",1528336392.853394,1.838125,-1.510229,1.818076,0.058378,0.998166,0.015989,0.000000,0.000000,0.000000,-1,-0.011226,0.006220,0.011733,0.001025,0.002017,-0.006528
"2018-06-07 01:53:12.863 +0000",1528336392.863467,1.837413,-1.510025,1.817174,0.058583,0.998154,0.016000,0.000000,0.000000,0.000000,-1,-0.007026,0.024903,0.009627,0.000423,0.002212,-0.008722
"2018-06-07 01:53:12.874 +0000",1528336392.873539,1.836502,-1.509820,1.815974,0.058795,0.998142,0.016001,0.000000,0.000000,0.000000,-1,0.005575,0.028231,0.009607,0.000897,-0.000308,-0.011301
"2018-06-07 01:53:12.884 +0000",1528336392.883614,1.834247,-1.509672,1.813527,0.058974,0.998132,0.015906,0.000000,0.000000,0.000000,-1,0.016106,0.016194,0.007397,-0.000288,-0.003427,-0.011542
"2018-06-07 01:53:12.894 +0000",1528336392.893687,1.831643,-1.509541,1.810860,0.059143,0.998124,0.015787,0.000000,0.000000,0.000000,-1,0.016137,0.001933,0.005204,-0.000152,-0.004472,-0.008249
"2018-06-07 01:53:12.904 +0000",1528336392.903759,1.829397,-1.509475,1.808630,0.059242,0.998120,0.015671,0.000000,0.000000,0.000000,-1,0.010922,-0.002455,0.000901,0.001961,-0.002591,-0.005524
"2018-06-07 01:53:12.914 +0000",1528336392.913834,1.826901,-1.509456,1.806156,0.059300,0.998119,0.015528,0.000000,0.000000,0.000000,-1,0.009895,-0.000249,-0.002317,0.004863,-0.002087,-0.002589
"2018-06-07 01:53:12.924 +0000",1528336392.923907,1.825027,-1.509488,1.804228,0.059297,0.998121,0.015409,0.000000,0.000000,0.000000,-1,0.009880,0.006333,-0.001223,0.009489,-0.004255,-0.000470
"2018-06-07 01:53:12.934 +0000",1528336392.933980,1.822559,-1.509486,1.801568,0.059337,0.998121,0.015263,0.000000,0.000000,0.000000,-1,0.010867,0.020580,0.005271,0.014424,-0.006925,0.004162
"2018-06-07 01:53:12.944 +0000",1528336392.944054,1.820063,-1.509473,1.798774,0.059387,0.998120,0.015118,0.000000,0.000000,0.000000,-1,0.009800,0.029354,0.006374,0.013260,-0.006894,0.005116
"2018-06-07 01:53:12.954 +0000",1528336392.954127,1.818611,-1.509418,1.797095,0.059461,0.998117,0.015045,0.000000,0.000000,0.000000,-1,-0.000704,0.021636,0.007451,0.009859,-0.004754,0.003510
"2018-06-07 01:53:12.964 +0000",1528336392.964200,1.817848,-1.509352,1.796155,0.059534,0.998113,0.015015,0.000000,0.000000,0.000000,-1,-0.004903,0.018331,0.007451,0.005254,-0.004155,0.000137
"2018-06-07 01:53:12.974 +0000",1528336392.974274,1.817875,-1.509319,1.796034,0.059567,0.998111,0.015025,0.000000,0.000000,0.000000,-1,-0.004874,0.013954,0.004212,0.001987,-0.004306,-0.004328
"2018-06-07 01:53:12.984 +0000",1528336392.984347,1.817723,-1.509313,1.795749,0.059574,0.998111,0.015017,0.000000,0.000000,0.000000,-1,0.000412,0.012889,-0.000106,0.003537,-0.004260,-0.006609
"2018-06-07 01:53:12.994 +0000",1528336392.994421,1.816597,-1.509327,1.794492,0.059577,0.998111,0.014946,0.000000,0.000000,0.000000,-1,0.006733,0.010720,-0.002278,0.007989,-0.002246,-0.007393
"2018-06-07 01:53:13.004 +0000",1528336393.004494,1.815505,-1.509294,1.793314,0.059624,0.998109,0.014889,0.000000,0.000000,0.000000,-1,0.004627,0.007416,-0.001207,0.010292,-0.002092,-0.003918
"2018-06-07 01:53:13.015 +0000",1528336393.014566,1.815388,-1.509161,1.793115,0.059755,0.998101,0.014914,0.000000,0.000000,0.000000,-1,-0.000650,0.008486,0.002035,0.008773,-0.003228,-0.000906
"2018-06-07 01:53:13.025 +0000",1528336393.024641,1.815624,-1.509046,1.793254,0.059863,0.998094,0.014956,0.000000,0.000000,0.000000,-1,-0.000635,0.009593,-0.000113,0.005368,-0.006349,0.001477
"2018-06-07 01:53:13.035 +0000",1528336393.034714,1.815513,-1.508959,1.793107,0.059949,0.998089,0.014971,0.000000,0.000000,0.000000,-1,0.002526,-0.000278,-0.000149,0.003756,-0.008999,0.000380
"2018-06-07 01:53:13.045 +0000",1528336393.044786,1.815092,-1.508922,1.792743,0.059988,0.998086,0.014954,0.000000,0.000000,0.000000,-1,0.001482,-0.006868,-0.000166,0.002680,-0.007821,-0.000305
"2018-06-07 01:53:13.055 +0000",1528336393.054861,1.814657,-1.508939,1.792401,0.059975,0.998087,0.014923,0.000000,0.000000,0.000000,-1,-0.001652,-0.007965,-0.002313,0.003257,-0.007426,0.002320
"2018-06-07 01:53:13.065 +0000",1528336393.064934,1.814765,-1.508945,1.792521,0.059969,0.998088,0.014928,0.000000,0.000000,0.000000,-1,-0.007946,0.000808,-0.004425,0.004912,-0.005671,0.005198
"2018-06-07 01:53:13.075 +0000",1528336393.075006,1.815191,-1.508908,1.792889,0.059999,0.998086,0.014963,0.000000,0.000000,0.000000,-1,-0.006911,0.008491,-0.003329,0.005522,-0.000832,0.005316
"2018-06-07 01:53:13.085 +0000",1528336393.085081,1.815329,-1.508822,1.792955,0.060079,0.998080,0.014991,0.000000,0.000000,0.000000,-1,-0.003798,0.005184,0.002032,0.006541,0.002149,0.000283
"2018-06-07 01:53:13.095 +0000",1528336393.095154,1.815496,-1.508726,1.793083,0.060169,0.998074,0.015024,0.000000,0.000000,0.000000,-1,-0.003805,0.004082,0.003105,0.004513,0.004306,-0.000651
"2018-06-07 01:53:13.105 +0000",1528336393.105227,1.814881,-1.508656,1.792470,0.060246,0.998070,0.015004,0.000000,0.000000,0.000000,-1,0.004603,-0.001384,0.003070,0.000285,0.003090,-0.002263
"2018-06-07 01:53:13.115 +0000",1528336393.115301,1.813558,-1.508658,1.791147,0.060264,0.998070,0.014924,0.000000,0.000000,0.000000,-1,0.008835,0.000842,-0.001236,-0.001380,-0.001244,-0.002061
"2018-06-07 01:53:13.125 +0000",1528336393.125374,1.812323,-1.508676,1.789896,0.060267,0.998071,0.014846,0.000000,0.000000,0.000000,-1,0.005682,0.003028,-0.001223,-0.002787,-0.004877,-0.001876
"2018-06-07 01:53:13.135 +0000",1528336393.135448,1.810964,-1.508690,1.788503,0.060274,0.998072,0.014761,0.000000,0.000000,0.000000,-1,0.013044,0.001956,-0.002318,-0.002351,-0.003962,-0.001119
"2018-06-07 01:53:13.146 +0000",1528336393.145521,1.808980,-1.508691,1.786521,0.060302,0.998072,0.014641,0.000000,0.000000,0.000000,-1,0.017240,-0.001331,-0.001262,0.000382,-0.000513,-0.000115
"2018-06-07 01:53:13.156 +0000",1528336393.155594,1.806219,-1.508693,1.783767,0.060344,0.998072,0.014475,0.000000,0.000000,0.000000,-1,0.021426,-0.002426,0.000877,0.000676,0.000646,0.002478
"2018-06-07 01:53:13.166 +0000",1528336393.165668,1.802976,-1.508706,1.780515,0.060375,0.998073,0.014275,0.000000,0.000000,0.000000,-1,0.022497,0.001982,-0.002340,0.001393,-0.000896,0.007774
"2018-06-07 01:53:13.176 +0000",1528336393.175741,1.799667,-1.508754,1.777218,0.060375,0.998076,0.014064,0.000000,0.000000,0.000000,-1,0.019342,-0.002422,-0.001270,0.004018,-0.005370,0.011128
"2018-06-07 01:53:13.186 +0000",1528336393.185813,1.797163,-1.508792,1.774778,0.060373,0.998078,0.013905,0.000000,0.000000,0.000000,-1,0.014078,-0.006837,0.000881,0.006582,-0.005479,0.011303
"2018-06-07 01:53:13.196 +0000",1528336393.195888,1.795778,-1.508812,1.773449,0.060373,0.998080,0.013817,0.000000,0.000000,0.000000,-1,0.007766,-0.005761,0.001974,0.009664,-0.001803,0.011024
"2018-06-07 01:53:13.206 +0000",1528336393.205961,1.794153,-1.508811,1.771896,0.060398,0.998079,0.013719,0.000000,0.000000,0.000000,-1,0.007750,-0.005771,0.004125,0.009320,-0.003206,0.007002
"2018-06-07 01:53:13.216 +0000",1528336393.216033,1.792471,-1.508784,1.770253,0.060446,0.998078,0.013623,0.000000,0.000000,0.000000,-1,0.010882,-0.003575,0.006276,0.006861,-0.003968,0.003497
"2018-06-07 01:53:13.226 +0000",1528336393.226108,1.789944,-1.508765,1.767772,0.060500,0.998077,0.013475,0.000000,0.000000,0.000000,-1,0.018246,-0.006844,0.005174,0.005097,-0.000610,-0.000322
"2018-06-07 01:53:13.236 +0000",1528336393.236181,1.785855,-1.508754,1.763771,0.060567,0.998076,0.013230,0.000000,0.000000,0.000000,-1,0.028729,-0.011219,0.008364,0.007182,-0.001051,-0.001801
"2018-06-07 01:53:13.246 +0000",1528336393.246253,1.780818,-1.508696,1.758889,0.060687,0.998072,0.012936,0.000000,0.000000,0.000000,-1,0.036062,-0.016701,0.011558,0.009228,-0.002589,0.001147
"2018-06-07 01:53:13.256 +0000",1528336393.256328,1.776313,-1.508631,1.754534,0.060810,0.998068,0.012677,0.000000,0.000000,0.000000,-1,0.030835,-0.016702,0.008343,0.003109,-0.000434,0.006977
"2018-06-07 01:53:13.266 +0000",1528336393.266401,1.772565,-1.508534,1.750965,0.060955,0.998062,0.012469,0.000000,0.000000,0.000000,-1,0.027672,-0.021111,0.010489,0.000110,-0.000900,0.007734
"2018-06-07 01:53:13.276 +0000",1528336393.276474,1.768263,-1.508428,1.746914,0.061113,0.998056,0.012227,0.000000,0.000000,0.000000,-1,0.032954,-0.026571,0.007234,0.004561,-0.000848,0.003413
"2018-06-07 01:53:13.287 +0000",1528336393.286548,1.762075,-1.508353,1.740946,0.061257,0.998051,0.011862,0.000000,0.000000,0.000000,-1,0.043436,-0.022160,0.009374,0.005806,-0.002446,0.002298
"2018-06-07 01:53:13.297 +0000",1528336393.296621,1.754640,-1.508269,1.733691,0.061426,0.998046,0.011422,0.000000,0.000000,0.000000,-1,0.047593,-0.018878,0.014752,0.010305,-0.004409,0.003349
"2018-06-07 01:53:13.307 +0000",1528336393.306695,1.746088,-1.508146,1.725318,0.061641,0.998038,0.010917,0.000000,0.000000,0.000000,-1,0.051762,-0.018884,0.019045,0.012913,-0.005362,0.005135
"2018-06-07 01:53:13.317 +0000",1528336393.316767,1.737342,-1.508008,1.716739,0.061869,0.998029,0.010400,0.000000,0.000000,0.000000,-1,0.050703,-0.018891,0.020124,0.011663,-0.005338,0.008688
"2018-06-07 01:53:13.327 +0000",1528336393.326840,1.729003,-1.507823,1.708574,0.062136,0.998018,0.009913,0.000000,0.000000,0.000000,-1,0.049634,-0.016708,0.022284,0.012358,-0.004777,0.009130
"2018-06-07 01:53:13.337 +0000",1528336393.336914,1.722092,-1.507662,1.701886,0.062362,0.998008,0.009508,0.000000,0.000000,0.000000,-1,0.042301,-0.027701,0.021193,0.011186,-0.002692,0.006346
"2018-06-07 01:53:13.347 +0000",1528336393.346987,1.714744,-1.507483,1.694699,0.062610,0.997996,0.009075,0.000000,0.000000,0.000000,-1,0.051708,-0.014520,0.025512,0.009808,-0.002269,0.004169
"2018-06-07 01:53:13.357 +0000",1528336393.357060,1.706102,-1.507242,1.686189,0.062924,0.997981,0.008566,0.000000,0.000000,0.000000,-1,0.055895,-0.016713,0.027647,0.008655,-0.003276,0.001016
"2018-06-07 01:53:13.367 +0000",1528336393.367134,1.697112,-1.506960,1.677331,0.063277,0.997963,0.008036,0.000000,0.000000,0.000000,-1,0.054826,-0.014529,0.029808,0.003480,-0.004250,0.000143
"2018-06-07 01:53:13.377 +0000",1528336393.377207,1.688596,-1.506666,1.668970,0.063637,0.997944,0.007531,0.000000,0.000000,0.000000,-1,0.050618,-0.016741,0.030886,-0.002282,-0.002461,0.000708
"2018-06-07 01:53:13.387 +0000",1528336393.387280,1.681642,-1.506399,1.662135,0.063953,0.997927,0.007118,0.000000,0.000000,0.000000,-1,0.044370,-0.012336,0.023384,-0.006977,-0.002230,-0.000358
"2018-06-07 01:53:13.397 +0000",1528336393.397354,1.674807,-1.506205,1.655372,0.064195,0.997915,0.006701,0.000000,0.000000,0.000000,-1,0.049668,-0.009001,0.016928,-0.007325,-0.003408,-0.002322
"2018-06-07 01:53:13.407 +0000",1528336393.407427,1.667723,-1.506052,1.648492,0.064392,0.997905,0.006261,0.000000,0.000000,0.000000,-1,0.048669,-0.027648,0.012573,-0.003876,-0.004207,-0.004354
"2018-06-07 01:53:13.418 +0000",1528336393.417500,1.661001,-1.505941,1.642176,0.064544,0.997898,0.005838,0.000000,0.000000,0.000000,-1,0.041359,-0.046316,0.009309,-0.003830,-0.003635,-0.004068
"2018-06-07 01:53:13.428 +0000",1528336393.427574,1.655548,-1.505864,1.637276,0.064651,0.997893,0.005492,0.000000,0.000000,0.000000,-1,0.031966,-0.057293,0.002844,0.000611,-0.002318,-0.001586
"2018-06-07 01:53:13.438 +0000",1528336393.437647,1.652517,-1.505924,1.634777,0.064607,0.997897,0.005292,0.000000,0.000000,0.000000,-1,0.014246,-0.052875,-0.015388,-0.012361,0.002226,0.003589
"2018-06-07 01:53:13.448 +0000",1528336393.447721,1.651326,-1.506016,1.634488,0.064520,0.997903,0.005207,0.000000,0.000000,0.000000,-1,0.001638,-0.100141,-0.009043,-0.009725,0.002265,-0.008793
"2018-06-07 01:53:13.458 +0000",1528336393.457794,1.648947,-1.506101,1.633141,0.064443,0.997908,0.005046,0.000000,0.000000,0.000000,-1,0.016316,-0.097918,-0.005843,0.001262,-0.005873,-0.011882
"2018-06-07 01:53:13.468 +0000",1528336393.467867,1.644534,-1.506229,1.629517,0.064339,0.997916,0.004753,0.000000,0.000000,0.000000,-1,0.028887,-0.071541,-0.004720,-0.000466,-0.008170,-0.006630
"2018-06-07 01:53:13.478 +0000",1528336393.477941,1.638426,-1.506335,1.623952,0.064263,0.997923,0.004353,0.000000,0.000000,0.000000,-1,0.039361,-0.049561,-0.003604,0.010551,-0.011198,-0.009876
"2018-06-07 01:53:13.488 +0000",1528336393.488014,1.630066,-1.506344,1.615971,0.064289,0.997924,0.003815,0.000000,0.000000,0.000000,-1,0.052912,-0.036400,0.008235,0.010189,-0.008849,-0.021027
"2018-06-07 01:53:13.498 +0000",1528336393.498087,1.620192,-1.506228,1.606389,0.064439,0.997916,0.003186,0.000000,0.000000,0.000000,-1,0.062287,-0.033121,0.017904,0.015303,-0.008826,-0.018353
"2018-06-07 01:53:13.508 +0000",1528336393.508161,1.610905,-1.506063,1.597461,0.064631,0.997906,0.002594,0.000000,0.000000,0.000000,-1,0.053880,-0.037540,0.018986,0.005956,-0.003399,-0.004562
"2018-06-07 01:53:13.518 +0000",1528336393.518234,1.604705,-1.505977,1.591636,0.064733,0.997900,0.002196,0.000000,0.000000,0.000000,-1,0.036048,-0.036479,0.015803,-0.001516,-0.000830,0.010148
"2018-06-07 01:53:13.528 +0000",1528336393.528307,1.600399,-1.505895,1.587647,0.064824,0.997895,0.001920,0.000000,0.000000,0.000000,-1,0.019253,-0.029930,0.013709,-0.006017,0.000396,0.014240
"2018-06-07 01:53:13.538 +0000",1528336393.538381,1.597278,-1.505799,1.584858,0.064927,0.997888,0.001720,0.000000,0.000000,0.000000,-1,0.010905,-0.035415,0.007259,-0.010591,-0.002069,0.008366
"2018-06-07 01:53:13.548 +0000",1528336393.548454,1.595258,-1.505745,1.583337,0.064987,0.997885,0.001590,0.000000,0.000000,0.000000,-1,0.008829,-0.052980,0.006137,-0.008957,-0.005942,-0.004550
"2018-06-07 01:53:13.559 +0000",1528336393.558527,1.592268,-1.505633,1.580921,0.065104,0.997878,0.001398,0.000000,0.000000,0.000000,-1,0.013029,-0.059560,0.007183,-0.005275,-0.007018,-0.011164
"2018-06-07 01:53:13.569 +0000",1528336393.568601,1.588160,-1.505533,1.577324,0.065208,0.997871,0.001132,0.000000,0.000000,0.000000,-1,0.013039,-0.044178,0.004001,-0.002219,-0.003502,-0.010776
"2018-06-07 01:53:13.579 +0000",1528336393.578674,1.584608,-1.505409,1.574089,0.065334,0.997863,0.000902,0.000000,0.000000,0.000000,-1,0.014071,-0.025513,0.004053,-0.002575,-0.000579,-0.010561
"2018-06-07 01:53:13.589 +0000",1528336393.588747,1.581689,-1.505313,1.571190,0.065433,0.997857,0.000713,0.000000,0.000000,0.000000,-1,0.021379,0.003040,0.006271,-0.001835,-0.001381,-0.013271
"2018-06-07 01:53:13.599 +0000",1528336393.598821,1.578169,-1.505258,1.567633,0.065488,0.997853,0.000483,0.000000,0.000000,0.000000,-1,0.032951,0.001984,0.004090,-0.000837,-0.003072,-0.018153
"2018-06-07 01:53:13.609 +0000",1528336393.608894,1.572683,-1.505235,1.562231,0.065513,0.997852,0.000124,0.000000,0.000000,0.000000,-1,0.046605,-0.014454,0.006162,0.000283,-0.007449,-0.017397
"2018-06-07 01:53:13.619 +0000",1528336393.618967,1.564985,-1.505256,1.554763,0.065491,0.997853,-0.000381,0.000000,0.000000,0.000000,-1,0.053985,-0.026499,0.003959,0.001510,-0.009221,-0.010743
"2018-06-07 01:53:13.629 +0000",1528336393.629041,1.556785,-1.505278,1.546842,0.065465,0.997854,-0.000917,0.000000,0.000000,0.000000,-1,0.047694,-0.028708,0.002891,0.002177,-0.007834,-0.000960
"2018-06-07 01:53:13.639 +0000",1528336393.639114,1.550817,-1.505275,1.541082,0.065462,0.997854,-0.001308,0.000000,0.000000,0.000000,-1,0.027726,-0.017786,0.002969,0.002532,-0.004522,0.007412
"2018-06-07 01:53:13.649 +0000",1528336393.649187,1.547589,-1.505284,1.537941,0.065448,0.997855,-0.001519,0.000000,0.000000,0.000000,-1,0.013026,-0.005743,0.000886,0.003583,-0.001486,0.011956
"2018-06-07 01:53:13.659 +0000",1528336393.659261,1.546120,-1.505254,1.536453,0.065476,0.997853,-0.001616,0.000000,0.000000,0.000000,-1,0.002482,0.001894,0.005235,0.004028,-0.001591,0.010863
"2018-06-07 01:53:13.669 +0000",1528336393.669334,1.546101,-1.505214,1.536441,0.065514,0.997850,-0.001618,0.000000,0.000000,0.000000,-1,-0.006970,0.000770,0.005253,0.001380,-0.003862,0.001328
"2018-06-07 01:53:13.679 +0000",1528336393.679408,1.546088,-1.505143,1.536453,0.065586,0.997846,-0.001621,0.000000,0.000000,0.000000,-1,-0.006965,-0.004719,0.005237,-0.002490,-0.006406,-0.007580
"2018-06-07 01:53:13.689 +0000",1528336393.689481,1.544288,-1.505096,1.534707,0.065626,0.997843,-0.001740,0.000000,0.000000,0.000000,-1,0.006716,-0.005765,0.001976,-0.005003,-0.009531,-0.012451
"2018-06-07 01:53:13.700 +0000",1528336393.699554,1.541252,-1.505067,1.531759,0.065651,0.997841,-0.001940,0.000000,0.000000,0.000000,-1,0.017229,-0.006829,0.000873,-0.006752,-0.008751,-0.014555
"2018-06-07 01:53:13.710 +0000",1528336393.709628,1.537977,-1.505065,1.528556,0.065645,0.997840,-0.002155,0.000000,0.000000,0.000000,-1,0.021462,-0.005701,-0.003436,-0.008364,-0.003212,-0.010555
"2018-06-07 01:53:13.720 +0000",1528336393.719701,1.535582,-1.505090,1.526123,0.065614,0.997842,-0.002311,0.000000,0.000000,0.000000,-1,0.019367,0.005280,-0.005550,-0.008103,0.002249,-0.007927
"2018-06-07 01:53:13.730 +0000",1528336393.729774,1.533540,-1.505148,1.524007,0.065554,0.997846,-0.002443,0.000000,0.000000,0.000000,-1,0.020435,0.004194,-0.007707,-0.004061,0.002520,-0.006452
"2018-06-07 01:53:13.740 +0000",1528336393.739848,1.531293,-1.505207,1.521720,0.065492,0.997850,-0.002588,0.000000,0.000000,0.000000,-1,0.019395,0.002000,-0.008787,0.000671,-0.003618,-0.004141
"2018-06-07 01:53:13.750 +0000",1528336393.749921,1.528576,-1.505245,1.518971,0.065444,0.997852,-0.002765,0.000000,0.000000,0.000000,-1,0.018310,0.004174,-0.004475,0.002091,-0.006855,-0.001828
"2018-06-07 01:53:13.760 +0000",1528336393.759994,1.525421,-1.505262,1.515669,0.065418,0.997853,-0.002970,0.000000,0.000000,0.000000,-1,0.018263,0.018427,-0.000131,0.002835,-0.006978,-0.000173
"2018-06-07 01:53:13.770 +0000",1528336393.770068,1.522221,-1.505297,1.512241,0.065375,0.997856,-0.003178,0.000000,0.000000,0.000000,-1,0.018274,0.023925,-0.002267,0.002237,-0.003349,-0.000026
"2018-06-07 01:53:13.780 +0000",1528336393.780141,1.518931,-1.505339,1.508735,0.065324,0.997858,-0.003391,0.000000,0.000000,0.000000,-1,0.015128,0.018427,-0.002275,0.001220,-0.000178,-0.000714
"2018-06-07 01:53:13.790 +0000",1528336393.790214,1.516248,-1.505397,1.505919,0.065257,0.997862,-0.003563,0.000000,0.000000,0.000000,-1,0.014095,0.009647,-0.003374,0.002919,0.000414,-0.002388
"2018-06-07 01:53:13.800 +0000",1528336393.800288,1.514783,-1.505441,1.504439,0.065206,0.997865,-0.003656,0.000000,0.000000,0.000000,-1,0.003585,-0.001369,-0.001231,0.004572,-0.002122,-0.005713
"2018-06-07 01:53:13.810 +0000",1528336393.810361,1.514035,-1.505462,1.503649,0.065181,0.997866,-0.003704,0.000000,0.000000,0.000000,-1,0.002520,0.005210,-0.000134,0.004674,-0.005450,-0.006260
"2018-06-07 01:53:13.820 +0000",1528336393.820434,1.512591,-1.505466,1.502139,0.065170,0.997867,-0.003798,0.000000,0.000000,0.000000,-1,0.010914,0.006327,0.000926,0.005433,-0.007480,-0.007235
"2018-06-07 01:53:13.831 +0000",1528336393.830508,1.510234,-1.505439,1.499768,0.065187,0.997865,-0.003953,0.000000,0.000000,0.000000,-1,0.016182,-0.002436,-0.000187,0.006239,-0.010072,-0.010009
"2018-06-07 01:53:13.841 +0000",1528336393.840581,1.507644,-1.505398,1.497208,0.065218,0.997862,-0.004124,0.000000,0.000000,0.000000,-1,0.016160,-0.004645,0.003033,0.006284,-0.009734,-0.008647
"2018-06-07 01:53:13.851 +0000",1528336393.850654,1.505283,-1.505371,1.494884,0.065234,0.997860,-0.004280,0.000000,0.000000,0.000000,-1,0.016192,-0.003529,-0.001266,0.003034,-0.004361,-0.003929
"2018-06-07 01:53:13.861 +0000",1528336393.860728,1.503800,-1.505327,1.493344,0.065272,0.997858,-0.004380,0.000000,0.000000,0.000000,-1,0.007728,0.008495,0.005242,-0.000117,-0.001337,0.000656
"2018-06-07 01:53:13.871 +0000",1528336393.870801,1.502951,-1.505262,1.492353,0.065334,0.997853,-0.004439,0.000000,0.000000,0.000000,-1,0.005628,0.016178,0.004194,-0.003505,-0.000722,0.001189
"2018-06-07 01:53:13.881 +0000",1528336393.880874,1.501277,-1.505227,1.490519,0.065360,0.997851,-0.004551,0.000000,0.000000,0.000000,-1,0.010904,0.016207,0.000955,-0.006950,-0.002719,0.000691
"2018-06-07 01:53:13.891 +0000",1528336393.890948,1.499337,-1.505224,1.488534,0.065355,0.997851,-0.004678,0.000000,0.000000,0.000000,-1,0.009912,-0.001338,-0.004472,-0.009249,-0.003130,-0.003348
"2018-06-07 01:53:13.901 +0000",1528336393.901021,1.497537,-1.505238,1.486857,0.065332,0.997852,-0.004795,0.000000,0.000000,0.000000,-1,0.006777,-0.017813,-0.004513,-0.008218,-0.002292,-0.007321
"2018-06-07 01:53:13.911 +0000",1528336393.911094,1.495236,-1.505280,1.484788,0.065280,0.997855,-0.004942,0.000000,0.000000,0.000000,-1,0.008908,-0.023282,-0.007761,-0.003787,-0.001272,-0.005541
"2018-06-07 01:53:13.921 +0000",1528336393.921168,1.492581,-1.505304,1.482354,0.065244,0.997856,-0.005114,0.000000,0.000000,0.000000,-1,0.012048,-0.019985,-0.006683,0.002505,-0.004311,-0.002394
"2018-06-07 01:53:13.931 +0000",1528336393.931241,1.490995,-1.505306,1.480856,0.065236,0.997856,-0.005217,0.000000,0.000000,0.000000,-1,0.007792,-0.006846,-0.001256,0.001125,-0.002846,-0.000658
"2018-06-07 01:53:13.941 +0000",1528336393.941314,1.490160,-1.505297,1.479933,0.065240,0.997856,-0.005272,0.000000,0.000000,0.000000,-1,0.007757,0.011807,0.000949,-0.000116,-0.002235,-0.000480
"2018-06-07 01:53:13.951 +0000",1528336393.951388,1.488470,-1.505287,1.478003,0.065241,0.997855,-0.005383,0.000000,0.000000,0.000000,-1,0.015089,0.024996,0.002046,-0.001810,-0.003363,-0.001758
"2018-06-07 01:53:13.961 +0000",1528336393.961461,1.485772,-1.505306,1.475102,0.065205,0.997856,-0.005557,0.000000,0.000000,0.000000,-1,0.021426,0.014049,-0.001227,-0.003163,-0.005165,-0.003125
"2018-06-07 01:53:13.972 +0000",1528336393.971535,1.482223,-1.505335,1.471516,0.065157,0.997858,-0.005786,0.000000,0.000000,0.000000,-1,0.019330,0.000866,-0.000185,-0.004916,-0.005488,-0.003262
"2018-06-07 01:53:13.982 +0000",1528336393.981608,1.478897,-1.505362,1.468225,0.065109,0.997860,-0.006000,0.000000,0.000000,0.000000,-1,0.016192,-0.003529,-0.001266,-0.004638,-0.003490,0.000812
"2018-06-07 01:53:13.992 +0000",1528336393.991681,1.476069,-1.505412,1.465428,0.065042,0.997863,-0.006180,0.000000,0.000000,0.000000,-1,0.016226,-0.004609,-0.005572,-0.003442,-0.003753,0.004593
"2018-06-07 01:53:14.002 +0000",1528336394.001755,1.474211,-1.505417,1.463557,0.065027,0.997864,-0.006300,0.000000,0.000000,0.000000,-1,0.008834,0.001939,-0.001233,-0.000086,-0.001327,0.003752
"2018-06-07 01:53:14.012 +0000",1528336394.011828,1.473981,-1.505412,1.463275,0.065027,0.997863,-0.006315,0.000000,0.000000,0.000000,-1,0.000419,0.006302,-0.000126,-0.000498,-0.000594,0.003386
"2018-06-07 01:53:14.022 +0000",1528336394.021901,1.473966,-1.505413,1.463167,0.065028,0.997863,-0.006316,0.000000,0.000000,0.000000,-1,0.000415,0.009595,-0.000116,-0.001826,-0.001831,0.000411
"2018-06-07 01:53:14.032 +0000",1528336394.031975,1.473409,-1.505433,1.462530,0.065005,0.997865,-0.006351,0.000000,0.000000,0.000000,-1,0.004645,0.006327,-0.003362,-0.003512,-0.005326,-0.002972
"2018-06-07 01:53:14.042 +0000",1528336394.042048,1.471410,-1.505478,1.460535,0.064948,0.997868,-0.006476,0.000000,0.000000,0.000000,-1,0.012032,-0.003518,-0.006635,-0.000709,-0.008610,-0.004480
"2018-06-07 01:53:14.052 +0000",1528336394.052121,1.468631,-1.505530,1.457853,0.064878,0.997871,-0.006651,0.000000,0.000000,0.000000,-1,0.015190,-0.011194,-0.006664,0.002932,-0.007926,-0.003465
"2018-06-07 01:53:14.062 +0000",1528336394.062195,1.466836,-1.505594,1.456227,0.064802,0.997875,-0.006761,0.000000,0.000000,0.000000,-1,0.007826,-0.016712,-0.004512,0.002855,-0.003811,-0.000197
"2018-06-07 01:53:14.072 +0000",1528336394.072268,1.466513,-1.505657,1.455988,0.064738,0.997879,-0.006776,0.000000,0.000000,0.000000,-1,0.002581,-0.005740,-0.006619,0.004262,-0.002625,0.001435
"2018-06-07 01:53:14.082 +0000",1528336394.082341,1.467205,-1.505687,1.456634,0.064711,0.997881,-0.006728,0.000000,0.000000,0.000000,-1,-0.004817,0.006296,-0.002265,0.004151,-0.004366,0.001189
"2018-06-07 01:53:14.092 +0000",1528336394.092415,1.467638,-1.505696,1.457041,0.064704,0.997882,-0.006699,0.000000,0.000000,0.000000,-1,0.000424,0.000813,-0.000142,0.003701,-0.004428,-0.002823
"2018-06-07 01:53:14.102 +0000",1528336394.102488,1.467176,-1.505680,1.456648,0.064718,0.997881,-0.006730,0.000000,0.000000,0.000000,-1,0.004618,-0.009064,0.001971,0.000529,-0.004106,-0.005477
"2018-06-07 01:53:14.113 +0000",1528336394.112561,1.465914,-1.505715,1.455536,0.064675,0.997883,-0.006808,0.000000,0.000000,0.000000,-1,0.006760,-0.016724,-0.002358,-0.001672,-0.004536,-0.005673
"2018-06-07 01:53:14.123 +0000",1528336394.122635,1.463862,-1.505750,1.453672,0.064629,0.997885,-0.006938,0.000000,0.000000,0.000000,-1,0.008878,-0.017807,-0.004518,-0.001305,-0.001669,-0.003408
"2018-06-07 01:53:14.133 +0000",1528336394.132708,1.462138,-1.505773,1.452119,0.064593,0.997887,-0.007046,0.000000,0.000000,0.000000,-1,0.007838,-0.020001,-0.005597,-0.001849,-0.001732,0.000638
"2018-06-07 01:53:14.143 +0000",1528336394.142781,1.461271,-1.505810,1.451414,0.064550,0.997889,-0.007098,0.000000,0.000000,0.000000,-1,0.003618,-0.017826,-0.003430,0.000788,0.000341,-0.001111
"2018-06-07 01:53:14.153 +0000",1528336394.152855,1.461730,-1.505802,1.452037,0.064561,0.997889,-0.007070,0.000000,0.000000,0.000000,-1,-0.002713,-0.013466,-0.000176,0.000502,0.001028,0.000279
"2018-06-07 01:53:14.163 +0000",1528336394.162928,1.461821,-1.505780,1.452263,0.064583,0.997887,-0.007066,0.000000,0.000000,0.000000,-1,-0.000612,-0.014558,-0.000184,0.001823,-0.005471,0.000108
"2018-06-07 01:53:14.173 +0000",1528336394.173001,1.461013,-1.505743,1.451606,0.064614,0.997885,-0.007122,0.000000,0.000000,0.000000,-1,0.004623,-0.013455,0.001959,0.004081,-0.008413,0.001232
"2018-06-07 01:53:14.183 +0000",1528336394.183075,1.459647,-1.505689,1.450413,0.064657,0.997881,-0.007216,0.000000,0.000000,0.000000,-1,0.006702,-0.016756,0.005171,0.003305,-0.007555,0.000701
"2018-06-07 01:53:14.193 +0000",1528336394.193148,1.457909,-1.505642,1.448798,0.064692,0.997878,-0.007334,0.000000,0.000000,0.000000,-1,0.007764,-0.012353,0.003030,0.000509,-0.003402,0.000697
"2018-06-07 01:53:14.203 +0000",1528336394.203221,1.455858,-1.505606,1.446812,0.064712,0.997876,-0.007471,0.000000,0.000000,0.000000,-1,0.011974,-0.003550,0.000895,-0.002547,0.000903,0.001169
"2018-06-07 01:53:14.213 +0000",1528336394.213295,1.453754,-1.505579,1.444745,0.064723,0.997874,-0.007610,0.000000,0.000000,0.000000,-1,0.015127,-0.005737,0.000881,-0.004771,0.001653,0.001629
"2018-06-07 01:53:14.223 +0000",1528336394.223368,1.450839,-1.505540,1.441937,0.064739,0.997872,-0.007803,0.000000,0.000000,0.000000,-1,0.019337,-0.014507,0.000846,-0.006008,-0.000923,0.002097
"2018-06-07 01:53:14.233 +0000",1528336394.233441,1.448156,-1.505515,1.439445,0.064741,0.997870,-0.007980,0.000000,0.000000,0.000000,-1,0.017241,-0.020002,0.000835,-0.006086,-0.002173,0.003601
"2018-06-07 01:53:14.244 +0000",1528336394.243515,1.446117,-1.505522,1.437625,0.064718,0.997870,-0.008111,0.000000,0.000000,0.000000,-1,0.010976,-0.023294,-0.003463,-0.004721,-0.003104,0.002923
"2018-06-07 01:53:14.254 +0000",1528336394.253588,1.444364,-1.505526,1.436125,0.064700,0.997871,-0.008224,0.000000,0.000000,0.000000,-1,0.008876,-0.024398,-0.003461,-0.004519,-0.003196,0.002121
"2018-06-07 01:53:14.264 +0000",1528336394.263661,1.442207,-1.505537,1.434176,0.064673,0.997871,-0.008362,0.000000,0.000000,0.000000,-1,0.015174,-0.019989,-0.003463,-0.001670,-0.002251,0.000046
"2018-06-07 01:53:14.274 +0000",1528336394.273735,1.440017,-1.505502,1.432077,0.064689,0.997869,-0.008509,0.000000,0.000000,0.000000,-1,0.017229,-0.006829,0.000873,0.001290,-0.001302,-0.000433
"2018-06-07 01:53:14.284 +0000",1528336394.283808,1.437437,-1.505455,1.429477,0.064715,0.997866,-0.008682,0.000000,0.000000,0.000000,-1,0.017194,0.003038,0.004129,0.000715,-0.000201,0.001922
"2018-06-07 01:53:14.294 +0000",1528336394.293881,1.435151,-1.505365,1.427171,0.064786,0.997860,-0.008842,0.000000,0.000000,0.000000,-1,0.016114,-0.000277,0.008424,0.000598,-0.002117,0.002434
"2018-06-07 01:53:14.304 +0000",1528336394.303955,1.433815,-1.505290,1.425830,0.064846,0.997855,-0.008939,0.000000,0.000000,0.000000,-1,0.008778,-0.000288,0.006290,-0.000302,-0.004233,0.001447
"2018-06-07 01:53:14.314 +0000",1528336394.314028,1.432197,-1.505252,1.424249,0.064869,0.997853,-0.009049,0.000000,0.000000,0.000000,-1,0.014042,-0.004660,0.005190,-0.001362,-0.004612,-0.001266
"2018-06-07 01:53:14.324 +0000",1528336394.324101,1.430083,-1.505205,1.422238,0.064896,0.997850,-0.009192,0.000000,0.000000,0.000000,-1,0.016160,-0.013432,0.004084,-0.000305,-0.004914,-0.003839
"2018-06-07 01:53:14.334 +0000",1528336394.334175,1.427355,-1.505162,1.419605,0.064913,0.997847,-0.009376,0.000000,0.000000,0.000000,-1,0.020364,-0.007927,0.003014,-0.003496,0.001497,-0.001382
"2018-06-07 01:53:14.344 +0000",1528336394.344248,1.424283,-1.505116,1.416617,0.064930,0.997844,-0.009582,0.000000,0.000000,0.000000,-1,0.022475,-0.010112,0.001927,-0.004108,0.003056,-0.000123
"2018-06-07 01:53:14.354 +0000",1528336394.354321,1.420921,-1.505078,1.413344,0.064936,0.997841,-0.009806,0.000000,0.000000,0.000000,-1,0.022508,-0.010094,-0.002375,-0.002772,0.000816,-0.002142
"2018-06-07 01:53:14.364 +0000",1528336394.364395,1.417683,-1.505048,1.410273,0.064934,0.997839,-0.010021,0.000000,0.000000,0.000000,-1,0.020390,-0.017797,0.000834,-0.000557,-0.003256,-0.004475
"2018-06-07 01:53:14.374 +0000",1528336394.374468,1.414954,-1.505015,1.407645,0.064938,0.997837,-0.010203,0.000000,0.000000,0.000000,-1,0.017221,-0.007931,0.001946,0.001376,-0.003819,-0.003698
"2018-06-07 01:53:14.385 +0000",1528336394.384541,1.412562,-1.504948,1.405216,0.064979,0.997833,-0.010369,0.000000,0.000000,0.000000,-1,0.018250,0.006338,0.003061,0.000847,-0.002624,-0.002525
"2018-06-07 01:53:14.395 +0000",1528336394.394615,1.409657,-1.504877,1.402158,0.065018,0.997828,-0.010569,0.000000,0.000000,0.000000,-1,0.023493,0.015135,0.003074,-0.002045,-0.001307,-0.004278
"2018-06-07 01:53:14.405 +0000",1528336394.404688,1.405886,-1.504791,1.398187,0.065061,0.997822,-0.010828,0.000000,0.000000,0.000000,-1,0.026633,0.018433,0.004152,-0.005705,-0.000157,-0.005545
"2018-06-07 01:53:14.415 +0000",1528336394.414761,1.401889,-1.504716,1.394023,0.065091,0.997818,-0.011100,0.000000,0.000000,0.000000,-1,0.028735,0.016243,0.004141,-0.005337,-0.004043,-0.006585
"2018-06-07 01:53:14.425 +0000",1528336394.424835,1.397759,-1.504676,1.389692,0.065085,0.997815,-0.011376,0.000000,0.000000,0.000000,-1,0.031923,0.020665,-0.001232,-0.003714,-0.006482,-0.004127
"2018-06-07 01:53:14.435 +0000",1528336394.434908,1.393187,-1.504635,1.384829,0.065070,0.997812,-0.011680,0.000000,0.000000,0.000000,-1,0.031922,0.030550,-0.002279,-0.001807,-0.007822,-0.000969
"2018-06-07 01:53:14.445 +0000",1528336394.444981,1.388785,-1.504614,1.380038,0.065040,0.997811,-0.011970,0.000000,0.000000,0.000000,-1,0.028778,0.040430,-0.004394,-0.002189,-0.009468,0.001778
"2018-06-07 01:53:14.455 +0000",1528336394.455055,1.385143,-1.504612,1.375886,0.064997,0.997811,-0.012207,0.000000,0.000000,0.000000,-1,0.023515,0.052490,-0.004347,-0.004725,-0.010689,0.005509
"2018-06-07 01:53:14.465 +0000",1528336394.465128,1.382052,-1.504668,1.372203,0.064905,0.997814,-0.012398,0.000000,0.000000,0.000000,-1,0.020416,0.058002,-0.011853,-0.007745,-0.008907,0.007027
"2018-06-07 01:53:14.475 +0000",1528336394.475201,1.379956,-1.504795,1.369579,0.064753,0.997823,-0.012510,0.000000,0.000000,0.000000,-1,0.011004,0.049212,-0.016160,-0.007975,-0.005391,0.006376
"2018-06-07 01:53:14.485 +0000",1528336394.485275,1.378655,-1.504984,1.367840,0.064555,0.997835,-0.012559,0.000000,0.000000,0.000000,-1,0.004727,0.040421,-0.018322,-0.005351,-0.005327,0.004731
"2018-06-07 01:53:14.495 +0000",1528336394.495348,1.378220,-1.505202,1.367069,0.064337,0.997849,-0.012545,0.000000,0.000000,0.000000,-1,-0.003648,0.029429,-0.020486,0.000223,-0.006532,0.007022
"2018-06-07 01:53:14.505 +0000",1528336394.505421,1.379652,-1.505424,1.368208,0.064137,0.997864,-0.012411,0.000000,0.000000,0.000000,-1,-0.016262,0.030487,-0.019379,0.006588,-0.008148,0.001776
"2018-06-07 01:53:14.515 +0000",1528336394.515495,1.381890,-1.505621,1.370088,0.063973,0.997877,-0.012231,0.000000,0.000000,0.000000,-1,-0.014201,0.037062,-0.015062,0.010841,-0.006345,-0.001456
"2018-06-07 01:53:14.526 +0000",1528336394.525568,1.383407,-1.505789,1.371190,0.063825,0.997888,-0.012102,0.000000,0.000000,0.000000,-1,-0.008971,0.043658,-0.012899,0.013812,-0.003595,-0.003691
"2018-06-07 01:53:14.536 +0000",1528336394.535641,1.384994,-1.505892,1.372361,0.063744,0.997894,-0.011982,0.000000,0.000000,0.000000,-1,-0.007984,0.040331,-0.004306,0.014259,-0.000137,-0.010113
"2018-06-07 01:53:14.546 +0000",1528336394.545715,1.386280,-1.505964,1.373280,0.063688,0.997899,-0.011887,0.000000,0.000000,0.000000,-1,-0.004837,0.035944,-0.003250,0.011507,0.000468,-0.013077
"2018-06-07 01:53:14.556 +0000",1528336394.555788,1.386603,-1.506015,1.373217,0.063641,0.997902,-0.011857,0.000000,0.000000,0.000000,-1,0.002498,0.037054,-0.001112,0.008395,0.000144,-0.013549
"2018-06-07 01:53:14.566 +0000",1528336394.565861,1.385892,-1.506054,1.372091,0.063593,0.997905,-0.011895,0.000000,0.000000,0.000000,-1,0.009855,0.041470,-0.002192,0.005392,-0.000560,-0.015205
"2018-06-07 01:53:14.576 +0000",1528336394.575935,1.384992,-1.506051,1.370807,0.063586,0.997905,-0.011952,0.000000,0.000000,0.000000,-1,0.010893,0.037072,-0.000056,0.003995,-0.000743,-0.017573
"2018-06-07 01:53:14.586 +0000",1528336394.586008,1.383438,-1.506011,1.368853,0.063607,0.997902,-0.012059,0.000000,0.000000,0.000000,-1,0.014051,0.038184,-0.001136,0.001502,-0.003060,-0.015422
"2018-06-07 01:53:14.596 +0000",1528336394.596081,1.381327,-1.505933,1.366352,0.063658,0.997897,-0.012208,0.000000,0.000000,0.000000,-1,0.017186,0.038183,0.001008,0.000200,-0.007525,-0.013931
"2018-06-07 01:53:14.606 +0000",1528336394.606155,1.378783,-1.505858,1.363490,0.063701,0.997892,-0.012384,0.000000,0.000000,0.000000,-1,0.016169,0.029412,-0.002242,-0.000300,-0.008955,-0.013602
"2018-06-07 01:53:14.616 +0000",1528336394.616228,1.375897,-1.505795,1.360346,0.063726,0.997888,-0.012580,0.000000,0.000000,0.000000,-1,0.018290,0.025036,-0.004411,0.000238,-0.004465,-0.009194
"2018-06-07 01:53:14.626 +0000",1528336394.626301,1.372644,-1.505767,1.356880,0.063714,0.997886,-0.012793,0.000000,0.000000,0.000000,-1,0.018304,0.019552,-0.005502,0.003180,-0.002754,-0.005899
"2018-06-07 01:53:14.636 +0000",1528336394.636375,1.369801,-1.505731,1.353914,0.063712,0.997884,-0.012981,0.000000,0.000000,0.000000,-1,0.014086,0.010744,-0.002291,0.005792,-0.001912,-0.003636
"2018-06-07 01:53:14.646 +0000",1528336394.646448,1.367481,-1.505699,1.351534,0.063713,0.997882,-0.013135,0.000000,0.000000,0.000000,-1,0.007780,0.006331,-0.001214,0.006004,-0.004092,-0.001223
"2018-06-07 01:53:14.657 +0000",1528336394.656521,1.366415,-1.505681,1.350394,0.063716,0.997881,-0.013207,0.000000,0.000000,0.000000,-1,0.000423,0.010702,-0.001184,0.006993,-0.006548,0.000054
"2018-06-07 01:53:14.667 +0000",1528336394.666595,1.365910,-1.505673,1.349754,0.063718,0.997880,-0.013241,0.000000,0.000000,0.000000,-1,-0.001682,0.015087,-0.001167,0.005862,-0.007020,-0.000370
"2018-06-07 01:53:14.677 +0000",1528336394.676668,1.366084,-1.505678,1.349808,0.063715,0.997881,-0.013229,0.000000,0.000000,0.000000,-1,-0.005878,0.009586,-0.001173,0.003500,-0.008455,-0.003312
"2018-06-07 01:53:14.687 +0000",1528336394.686741,1.366257,-1.505688,1.349920,0.063705,0.997881,-0.013215,0.000000,0.000000,0.000000,-1,-0.004824,0.006296,-0.001185,0.002472,-0.009844,-0.006942
"2018-06-07 01:53:14.697 +0000",1528336394.696814,1.366441,-1.505716,1.350048,0.063680,0.997883,-0.013198,0.000000,0.000000,0.000000,-1,-0.002714,0.005209,-0.002269,-0.002004,-0.007496,-0.007951
"2018-06-07 01:53:14.707 +0000",1528336394.706888,1.366253,-1.505779,1.349730,0.063617,0.997887,-0.013197,0.000000,0.000000,0.000000,-1,0.000478,0.014027,-0.008704,-0.005710,-0.003304,-0.005083
"2018-06-07 01:53:14.717 +0000",1528336394.716961,1.365625,-1.505827,1.348988,0.063562,0.997890,-0.013227,0.000000,0.000000,0.000000,-1,0.003633,0.009644,-0.008724,-0.005548,-0.003307,-0.004107
"2018-06-07 01:53:14.727 +0000",1528336394.727034,1.365299,-1.505911,1.348575,0.063476,0.997896,-0.013231,0.000000,0.000000,0.000000,-1,0.000509,0.007454,-0.011950,-0.003189,-0.002031,-0.003798
"2018-06-07 01:53:14.737 +0000",1528336394.737108,1.365106,-1.505992,1.348311,0.063394,0.997901,-0.013227,0.000000,0.000000,0.000000,-1,-0.000549,0.006348,-0.010876,0.001090,-0.001594,-0.004229
"2018-06-07 01:53:14.747 +0000",1528336394.747181,1.364783,-1.506070,1.347951,0.063313,0.997906,-0.013231,0.000000,0.000000,0.000000,-1,-0.000548,0.005251,-0.010879,0.004344,-0.000805,-0.002455
"2018-06-07 01:53:14.757 +0000",1528336394.757254,1.364271,-1.506131,1.347408,0.063246,0.997910,-0.013251,0.000000,0.000000,0.000000,-1,0.001522,0.003043,-0.006587,0.006578,-0.002152,-0.000741
"2018-06-07 01:53:14.767 +0000",1528336394.767328,1.364122,-1.506167,1.347185,0.063210,0.997912,-0.013253,0.000000,0.000000,0.000000,-1,-0.003751,0.008508,-0.004408,0.007225,-0.001086,0.000955
"2018-06-07 01:53:14.777 +0000",1528336394.777401,1.364568,-1.506200,1.347520,0.063185,0.997914,-0.013219,0.000000,0.000000,0.000000,-1,-0.006923,0.012881,-0.002237,0.004899,0.000895,-0.000133
"2018-06-07 01:53:14.787 +0000",1528336394.787474,1.365667,-1.506234,1.348415,0.063165,0.997917,-0.013142,0.000000,0.000000,0.000000,-1,-0.008001,0.023847,-0.000051,0.004584,-0.001457,-0.002163
"2018-06-07 01:53:14.798 +0000",1528336394.797548,1.366073,-1.506216,1.348615,0.063189,0.997915,-0.013120,0.000000,0.000000,0.000000,-1,-0.001743,0.018348,0.006372,0.003263,-0.002874,-0.005603
"2018-06-07 01:53:14.808 +0000",1528336394.807621,1.366536,-1.506176,1.348984,0.063234,0.997913,-0.013099,0.000000,0.000000,0.000000,-1,-0.002789,0.005168,0.007412,0.001265,-0.003009,-0.010125
"2018-06-07 01:53:14.818 +0000",1528336394.817694,1.366659,-1.506118,1.349050,0.063292,0.997909,-0.013103,0.000000,0.000000,0.000000,-1,0.000368,0.008474,0.006339,0.000063,-0.002853,-0.010091
"2018-06-07 01:53:14.828 +0000",1528336394.827768,1.365403,-1.506025,1.347656,0.063366,0.997903,-0.013201,0.000000,0.000000,0.000000,-1,0.011915,0.015093,0.006332,0.002582,-0.003305,-0.009672
"2018-06-07 01:53:14.838 +0000",1528336394.837841,1.362920,-1.505886,1.345009,0.063470,0.997894,-0.013387,0.000000,0.000000,0.000000,-1,0.019259,0.015109,0.007390,0.003120,-0.006820,-0.008219
"2018-06-07 01:53:14.848 +0000",1528336394.847914,1.359936,-1.505709,1.341844,0.063601,0.997883,-0.013613,0.000000,0.000000,0.000000,-1,0.024475,0.018399,0.011691,0.001065,-0.004642,-0.005567
"2018-06-07 01:53:14.858 +0000",1528336394.857988,1.357400,-1.505552,1.339090,0.063720,0.997872,-0.013808,0.000000,0.000000,0.000000,-1,0.019235,0.022784,0.009564,-0.000365,-0.002419,-0.001558
"2018-06-07 01:53:14.868 +0000",1528336394.868061,1.354697,-1.505425,1.336150,0.063805,0.997864,-0.014007,0.000000,0.000000,0.000000,-1,0.021370,0.021711,0.005254,-0.001748,0.000076,0.003021
"2018-06-07 01:53:14.878 +0000",1528336394.878134,1.352093,-1.505317,1.333334,0.063876,0.997857,-0.014197,0.000000,0.000000,0.000000,-1,0.018220,0.020604,0.005258,-0.000765,-0.000604,0.005179
"2018-06-07 01:53:14.888 +0000",1528336394.888208,1.349532,-1.505212,1.330611,0.063939,0.997850,-0.014383,0.000000,0.000000,0.000000,-1,0.015059,0.014000,0.007397,0.000026,-0.001802,0.005731
"2018-06-07 01:53:14.898 +0000",1528336394.898281,1.346700,-1.505119,1.327622,0.063987,0.997844,-0.014584,0.000000,0.000000,0.000000,-1,0.018233,0.016217,0.004169,0.000390,-0.002528,0.007474
"2018-06-07 01:53:14.908 +0000",1528336394.908354,1.344820,-1.505027,1.325576,0.064049,0.997838,-0.014725,0.000000,0.000000,0.000000,-1,0.010873,0.015095,0.005258,-0.001046,-0.002461,0.007904
"2018-06-07 01:53:14.918 +0000",1528336394.918428,1.343513,-1.504971,1.324143,0.064086,0.997834,-0.014822,0.000000,0.000000,0.000000,-1,0.007758,0.011811,0.000953,-0.002853,-0.000947,0.005194
"2018-06-07 01:53:14.929 +0000",1528336394.928501,1.342424,-1.504919,1.322977,0.064121,0.997831,-0.014904,0.000000,0.000000,0.000000,-1,0.007755,0.006317,0.002013,-0.002110,-0.000898,0.001506
"2018-06-07 01:53:14.939 +0000",1528336394.938574,1.341214,-1.504879,1.321701,0.064141,0.997828,-0.014990,0.000000,0.000000,0.000000,-1,0.009856,0.006323,0.002008,-0.001747,-0.003794,0.000326
"2018-06-07 01:53:14.949 +0000",1528336394.948648,1.339501,-1.504837,1.319920,0.064155,0.997825,-0.015109,0.000000,0.000000,0.000000,-1,0.014048,0.007428,0.003078,-0.002921,-0.006508,-0.001218
"2018-06-07 01:53:14.959 +0000",1528336394.958721,1.338020,-1.504806,1.318365,0.064162,0.997823,-0.015211,0.000000,0.000000,0.000000,-1,0.013013,0.008532,0.000932,-0.003020,-0.006506,-0.001406
"2018-06-07 01:53:14.969 +0000",1528336394.968794,1.336451,-1.504788,1.316705,0.064156,0.997822,-0.015316,0.000000,0.000000,0.000000,-1,0.013028,0.009639,-0.001216,-0.004235,-0.005467,-0.000248
"2018-06-07 01:53:14.979 +0000",1528336394.978867,1.334113,-1.504783,1.314246,0.064125,0.997822,-0.015467,0.000000,0.000000,0.000000,-1,0.019357,0.007475,-0.004464,-0.003319,-0.005940,-0.001165
"2018-06-07 01:53:14.989 +0000",1528336394.988941,1.331602,-1.504814,1.311747,0.064055,0.997824,-0.015621,0.000000,0.000000,0.000000,-1,0.016235,-0.004600,-0.006643,-0.000838,-0.006735,-0.001622
"2018-06-07 01:53:14.999 +0000",1528336394.999014,1.329890,-1.504878,1.310154,0.063967,0.997828,-0.015715,0.000000,0.000000,0.000000,-1,0.008907,-0.013394,-0.008803,0.002577,-0.006526,0.002669
"2018-06-07 01:53:15.009 +0000",1528336395.009087,1.329072,-1.504952,1.309414,0.063882,0.997833,-0.015750,0.000000,0.000000,0.000000,-1,0.002598,-0.005727,-0.008767,0.005103,-0.006790,0.007342
"2018-06-07 01:53:15.019 +0000",1528336395.019161,1.329249,-1.505028,1.309604,0.063812,0.997838,-0.015721,0.000000,0.000000,0.000000,-1,-0.003733,-0.001367,-0.005513,0.006775,-0.007115,0.008595
"2018-06-07 01:53:15.029 +0000",1528336395.029234,1.330143,-1.505093,1.310515,0.063766,0.997842,-0.015649,0.000000,0.000000,0.000000,-1,-0.007941,-0.003579,-0.004434,0.005417,-0.003900,0.005410
"2018-06-07 01:53:15.039 +0000",1528336395.039307,1.331304,-1.505148,1.311759,0.063730,0.997846,-0.015561,0.000000,0.000000,0.000000,-1,-0.009000,-0.011275,-0.002302,0.003531,-0.001706,0.001401
"2018-06-07 01:53:15.049 +0000",1528336395.049381,1.332566,-1.505210,1.313188,0.063688,0.997850,-0.015466,0.000000,0.000000,0.000000,-1,-0.010037,-0.016763,-0.003392,0.001650,-0.001085,-0.000571
"2018-06-07 01:53:15.059 +0000",1528336395.059454,1.333705,-1.505257,1.314466,0.063660,0.997853,-0.015383,0.000000,0.000000,0.000000,-1,-0.009000,-0.011275,-0.002302,0.000671,-0.001790,-0.001265
"2018-06-07 01:53:15.070 +0000",1528336395.069527,1.335414,-1.505277,1.316310,0.063668,0.997854,-0.015269,0.000000,0.000000,0.000000,-1,-0.013236,-0.010207,0.002013,-0.000115,-0.001852,-0.002706
"2018-06-07 01:53:15.080 +0000",1528336395.079601,1.336883,-1.505287,1.317806,0.063682,0.997855,-0.015174,0.000000,0.000000,0.000000,-1,-0.006928,0.000797,-0.000121,-0.003180,-0.001181,-0.005258
"2018-06-07 01:53:15.090 +0000",1528336395.089674,1.337348,-1.505280,1.318229,0.063693,0.997855,-0.015145,0.000000,0.000000,0.000000,-1,0.000428,0.005213,-0.001200,-0.004809,-0.004233,-0.010703
"2018-06-07 01:53:15.100 +0000",1528336395.099747,1.336149,-1.505282,1.317018,0.063670,0.997855,-0.015220,0.000000,0.000000,0.000000,-1,0.013072,-0.001320,-0.005551,-0.004237,-0.004447,-0.012078
"2018-06-07 01:53:15.110 +0000",1528336395.109821,1.333667,-1.505250,1.314558,0.063664,0.997853,-0.015386,0.000000,0.000000,0.000000,-1,0.017268,-0.004607,-0.004494,-0.002217,-0.001332,-0.008235
"2018-06-07 01:53:15.120 +0000",1528336395.119895,1.331255,-1.505235,1.312110,0.063641,0.997852,-0.015543,0.000000,0.000000,0.000000,-1,0.014092,0.004158,-0.002310,0.001621,0.000363,-0.003454
"2018-06-07 01:53:15.130 +0000",1528336395.129967,1.328845,-1.505208,1.309631,0.063630,0.997850,-0.015703,0.000000,0.000000,0.000000,-1,0.014080,0.008544,-0.001222,0.001663,-0.000688,0.002351
"2018-06-07 01:53:15.140 +0000",1528336395.140041,1.327921,-1.505197,1.308575,0.063628,0.997849,-0.015765,0.000000,0.000000,0.000000,-1,0.005656,0.012903,0.000961,0.002672,-0.002915,0.004305
"2018-06-07 01:53:15.150 +0000",1528336395.150114,1.327543,-1.505204,1.308138,0.063617,0.997850,-0.015788,0.000000,0.000000,0.000000,-1,0.002531,0.003023,-0.001212,0.003095,-0.002977,0.000453
"2018-06-07 01:53:15.160 +0000",1528336395.160187,1.327081,-1.505175,1.307723,0.063638,0.997848,-0.015824,0.000000,0.000000,0.000000,-1,0.000399,-0.006885,0.004143,0.003928,-0.003020,-0.002136
"2018-06-07 01:53:15.170 +0000",1528336395.170260,1.326705,-1.505157,1.307428,0.063649,0.997846,-0.015852,0.000000,0.000000,0.000000,-1,-0.001685,-0.006882,0.001996,0.002925,-0.003187,-0.000444
"2018-06-07 01:53:15.180 +0000",1528336395.180334,1.326653,-1.505125,1.307376,0.063679,0.997844,-0.015863,0.000000,0.000000,0.000000,-1,-0.000669,0.002987,0.005250,-0.000371,-0.002468,0.001291
"2018-06-07 01:53:15.190 +0000",1528336395.190407,1.326376,-1.505076,1.306982,0.063722,0.997841,-0.015893,0.000000,0.000000,0.000000,-1,0.003521,0.013976,0.005272,-0.003237,-0.002816,-0.002265
"2018-06-07 01:53:15.200 +0000",1528336395.200480,1.325059,-1.505002,1.305482,0.063772,0.997836,-0.015994,0.000000,0.000000,0.000000,-1,0.011919,0.019489,0.005269,-0.004659,-0.002475,-0.005978
"2018-06-07 01:53:15.211 +0000",1528336395.210554,1.322789,-1.504902,1.303026,0.063832,0.997830,-0.016164,0.000000,0.000000,0.000000,-1,0.020331,0.018419,0.004171,-0.005925,-0.001355,-0.007045
"2018-06-07 01:53:15.221 +0000",1528336395.220627,1.320024,-1.504824,1.300084,0.063863,0.997825,-0.016359,0.000000,0.000000,0.000000,-1,0.022458,0.017341,0.000936,-0.006108,-0.000983,-0.005354
"2018-06-07 01:53:15.231 +0000",1528336395.230700,1.317132,-1.504726,1.296984,0.063911,0.997818,-0.016569,0.000000,0.000000,0.000000,-1,0.024536,0.022826,0.003098,-0.005256,-0.001648,-0.001803
"2018-06-07 01:53:15.241 +0000",1528336395.240774,1.314036,-1.504622,1.293622,0.063958,0.997811,-0.016792,0.000000,0.000000,0.000000,-1,0.022441,0.026118,0.002037,-0.003686,-0.003610,0.002831
"2018-06-07 01:53:15.251 +0000",1528336395.250847,1.311120,-1.504544,1.290431,0.063985,0.997806,-0.016999,0.000000,0.000000,0.000000,-1,0.021407,0.026124,-0.000112,-0.003515,-0.000934,0.003038
"2018-06-07 01:53:15.261 +0000",1528336395.260920,1.308436,-1.504479,1.287521,0.064003,0.997802,-0.017188,0.000000,0.000000,0.000000,-1,0.019302,0.021723,0.000956,0.000008,-0.002181,0.001807
"2018-06-07 01:53:15.271 +0000",1528336395.270994,1.305772,-1.504434,1.284704,0.064000,0.997799,-0.017370,0.000000,0.000000,0.000000,-1,0.019302,0.014034,0.002009,0.004558,-0.002651,0.002218
"2018-06-07 01:53:15.281 +0000",1528336395.281067,1.303681,-1.504374,1.282451,0.064020,0.997795,-0.017519,0.000000,0.000000,0.000000,-1,0.012991,0.014012,0.003099,0.006262,-0.001991,0.003222
"2018-06-07 01:53:15.291 +0000",1528336395.291140,1.303010,-1.504326,1.281596,0.064054,0.997792,-0.017575,0.000000,0.000000,0.000000,-1,0.003523,0.020567,0.004215,0.006274,-0.003895,0.001706
"2018-06-07 01:53:15.301 +0000",1528336395.301214,1.303002,-1.504250,1.281270,0.064127,0.997787,-0.017596,0.000000,0.000000,0.000000,-1,0.002428,0.032622,0.008556,0.004385,-0.006377,-0.000944
"2018-06-07 01:53:15.311 +0000",1528336395.311287,1.302868,-1.504174,1.280762,0.064199,0.997782,-0.017625,0.000000,0.000000,0.000000,-1,0.005582,0.038124,0.007489,-0.000540,-0.004679,-0.002044
"2018-06-07 01:53:15.321 +0000",1528336395.321360,1.302489,-1.504094,1.280046,0.064270,0.997776,-0.017670,0.000000,0.000000,0.000000,-1,0.008749,0.030453,0.006384,-0.005249,-0.003514,-0.008117
"2018-06-07 01:53:15.331 +0000",1528336395.331433,1.301650,-1.504024,1.278959,0.064322,0.997772,-0.017742,0.000000,0.000000,0.000000,-1,0.011916,0.022782,0.005278,-0.006430,-0.003509,-0.012272
"2018-06-07 01:53:15.342 +0000",1528336395.341507,1.299784,-1.503936,1.276897,0.064372,0.997766,-0.017886,0.000000,0.000000,0.000000,-1,0.017165,0.017303,0.006326,-0.004619,-0.003457,-0.012174
"2018-06-07 01:53:15.352 +0000",1528336395.351580,1.297241,-1.503812,1.274189,0.064445,0.997757,-0.018083,0.000000,0.000000,0.000000,-1,0.022434,0.016229,0.004160,-0.000846,-0.003708,-0.009185
"2018-06-07 01:53:15.362 +0000",1528336395.361653,1.294085,-1.503690,1.270878,0.064506,0.997749,-0.018319,0.000000,0.000000,0.000000,-1,0.026646,0.014050,0.003068,0.002160,-0.002907,-0.006995
"2018-06-07 01:53:15.372 +0000",1528336395.371727,1.291173,-1.503572,1.267828,0.064567,0.997741,-0.018540,0.000000,0.000000,0.000000,-1,0.022431,0.010736,0.005219,0.004571,-0.004257,-0.003799
"2018-06-07 01:53:15.382 +0000",1528336395.381800,1.288707,-1.503474,1.265297,0.064611,0.997735,-0.018725,0.000000,0.000000,0.000000,-1,0.017200,0.006339,0.003067,0.004191,-0.004388,-0.002210
"2018-06-07 01:53:15.392 +0000",1528336395.391873,1.287214,-1.503420,1.263787,0.064635,0.997731,-0.018837,0.000000,0.000000,0.000000,-1,0.008812,-0.000266,0.001991,0.004472,-0.005467,-0.001106
"2018-06-07 01:53:15.402 +0000",1528336395.401947,1.285983,-1.503396,1.262552,0.064635,0.997729,-0.018923,0.000000,0.000000,0.000000,-1,0.006719,-0.000267,0.000921,0.004396,-0.008182,-0.000028
"2018-06-07 01:53:15.412 +0000",1528336395.412020,1.285300,-1.503380,1.261846,0.064637,0.997728,-0.018972,0.000000,0.000000,0.000000,-1,0.000406,0.003004,0.002020,0.004805,-0.010607,0.002035
"2018-06-07 01:53:15.422 +0000",1528336395.422093,1.285246,-1.503360,1.261807,0.064655,0.997727,-0.018981,0.000000,0.000000,0.000000,-1,-0.003790,-0.002497,0.002014,0.003109,-0.008362,0.002013
"2018-06-07 01:53:15.432 +0000",1528336395.432167,1.285874,-1.503350,1.262503,0.064677,0.997726,-0.018943,0.000000,0.000000,0.000000,-1,-0.008004,-0.006909,0.004162,-0.000255,-0.004166,-0.000786
"2018-06-07 01:53:15.442 +0000",1528336395.442240,1.286878,-1.503374,1.263618,0.064675,0.997728,-0.018872,0.000000,0.000000,0.000000,-1,-0.010059,-0.011283,-0.001224,-0.003487,-0.003587,-0.003207
"2018-06-07 01:53:15.452 +0000",1528336395.452313,1.288016,-1.503414,1.264856,0.064657,0.997731,-0.018787,0.000000,0.000000,0.000000,-1,-0.007945,-0.007975,-0.003371,-0.003164,-0.004017,-0.004665
"2018-06-07 01:53:15.462 +0000",1528336395.462387,1.288041,-1.503414,1.264929,0.064656,0.997731,-0.018785,0.000000,0.000000,0.000000,-1,-0.000604,-0.004665,-0.002302,-0.002095,-0.005085,-0.003828
"2018-06-07 01:53:15.472 +0000",1528336395.472460,1.287450,-1.503420,1.264372,0.064640,0.997731,-0.018822,0.000000,0.000000,0.000000,-1,0.003597,-0.004654,-0.002312,-0.000309,-0.004811,-0.003685
"2018-06-07 01:53:15.483 +0000",1528336395.482533,1.287307,-1.503418,1.264304,0.064640,0.997731,-0.018832,0.000000,0.000000,0.000000,-1,0.000435,-0.010160,-0.000169,-0.000232,-0.002980,-0.004514
"2018-06-07 01:53:15.493 +0000",1528336395.492606,1.286904,-1.503449,1.264002,0.064602,0.997733,-0.018849,0.000000,0.000000,0.000000,-1,0.001535,-0.010130,-0.006626,0.001087,-0.001182,-0.004268
"2018-06-07 01:53:15.503 +0000",1528336395.502680,1.286572,-1.503495,1.263809,0.064554,0.997736,-0.018858,0.000000,0.000000,0.000000,-1,-0.000578,-0.014536,-0.004482,0.003805,-0.000864,-0.004457
"2018-06-07 01:53:15.513 +0000",1528336395.512753,1.286318,-1.503546,1.263724,0.064501,0.997740,-0.018861,0.000000,0.000000,0.000000,-1,-0.001626,-0.016735,-0.004486,0.008009,-0.000761,-0.003905
"2018-06-07 01:53:15.523 +0000",1528336395.522826,1.286412,-1.503571,1.263977,0.064477,0.997741,-0.018847,0.000000,0.000000,0.000000,-1,-0.004811,-0.015664,-0.000173,0.010077,-0.001144,-0.003217
"2018-06-07 01:53:15.533 +0000",1528336395.532900,1.287500,-1.503581,1.265226,0.064487,0.997742,-0.018774,0.000000,0.000000,0.000000,-1,-0.010096,-0.014594,0.004149,0.010266,-0.003144,-0.004908
"2018-06-07 01:53:15.543 +0000",1528336395.542973,1.287852,-1.503570,1.265711,0.064506,0.997741,-0.018755,0.000000,0.000000,0.000000,-1,-0.002745,-0.013476,0.004136,0.010674,-0.007354,-0.008894
"2018-06-07 01:53:15.553 +0000",1528336395.553046,1.287804,-1.503512,1.265827,0.064561,0.997737,-0.018774,0.000000,0.000000,0.000000,-1,0.000386,-0.017872,0.007343,0.009902,-0.007839,-0.011484
"2018-06-07 01:53:15.563 +0000",1528336395.563120,1.286632,-1.503421,1.264828,0.064626,0.997731,-0.018875,0.000000,0.000000,0.000000,-1,0.010890,-0.018940,0.007316,0.007518,-0.005696,-0.009064
"2018-06-07 01:53:15.573 +0000",1528336395.573193,1.285299,-1.503314,1.263678,0.064704,0.997724,-0.018992,0.000000,0.000000,0.000000,-1,0.009839,-0.017845,0.007321,0.002770,-0.001020,-0.006079
"2018-06-07 01:53:15.583 +0000",1528336395.583266,1.283586,-1.503221,1.262114,0.064757,0.997718,-0.019128,0.000000,0.000000,0.000000,-1,0.014052,-0.013433,0.005173,-0.001021,0.000344,-0.003043
"2018-06-07 01:53:15.593 +0000",1528336395.593339,1.281801,-1.503153,1.260489,0.064789,0.997713,-0.019263,0.000000,0.000000,0.000000,-1,0.009890,-0.020014,0.000861,-0.002304,-0.000215,-0.003076
"2018-06-07 01:53:15.603 +0000",1528336395.603413,1.280247,-1.503081,1.259238,0.064828,0.997708,-0.019384,0.000000,0.000000,0.000000,-1,0.007794,-0.033197,0.001903,-0.001412,-0.003217,-0.003046
"2018-06-07 01:53:15.613 +0000",1528336395.613486,1.278539,-1.503017,1.257890,0.064856,0.997704,-0.019513,0.000000,0.000000,0.000000,-1,0.008863,-0.035381,-0.000257,0.000620,-0.005287,-0.000872
"2018-06-07 01:53:15.624 +0000",1528336395.623559,1.276577,-1.502946,1.256259,0.064886,0.997699,-0.019661,0.000000,0.000000,0.000000,-1,0.009903,-0.033187,0.000822,0.003657,-0.006473,0.002297
"2018-06-07 01:53:15.634 +0000",1528336395.633633,1.275134,-1.502857,1.255099,0.064942,0.997693,-0.019781,0.000000,0.000000,0.000000,-1,0.006721,-0.026622,0.004076,0.008208,-0.006909,0.007589
"2018-06-07 01:53:15.644 +0000",1528336395.643706,1.274722,-1.502766,1.254873,0.065021,0.997687,-0.019834,0.000000,0.000000,0.000000,-1,-0.000665,-0.017875,0.007345,0.006268,-0.005911,0.010999
"2018-06-07 01:53:15.654 +0000",1528336395.653780,1.275507,-1.502725,1.255846,0.065076,0.997684,-0.019795,0.000000,0.000000,0.000000,-1,-0.009043,-0.017884,0.004137,-0.000150,-0.003666,0.010228
"2018-06-07 01:53:15.664 +0000",1528336395.663853,1.277233,-1.502723,1.257797,0.065110,0.997684,-0.019683,0.000000,0.000000,0.000000,-1,-0.015325,-0.021186,0.001991,-0.005219,-0.002902,0.006468
"2018-06-07 01:53:15.674 +0000",1528336395.673926,1.279501,-1.502741,1.260223,0.065137,0.997685,-0.019530,0.000000,0.000000,0.000000,-1,-0.018510,-0.012426,0.005251,-0.008588,-0.001485,0.004317
"2018-06-07 01:53:15.684 +0000",1528336395.683999,1.281767,-1.502763,1.262532,0.065158,0.997687,-0.019375,0.000000,0.000000,0.000000,-1,-0.015344,-0.001427,0.002048,-0.010867,0.000299,0.001477
"2018-06-07 01:53:15.694 +0000",1528336395.694073,1.283274,-1.502775,1.263996,0.065176,0.997687,-0.019274,0.000000,0.000000,0.000000,-1,-0.009043,0.007378,0.000984,-0.013387,0.000405,-0.003889
"2018-06-07 01:53:15.704 +0000",1528336395.704146,1.283285,-1.502756,1.263837,0.065193,0.997686,-0.019278,0.000000,0.000000,0.000000,-1,0.005660,0.018401,-0.000093,-0.012245,-0.000295,-0.006738
"2018-06-07 01:53:15.714 +0000",1528336395.714219,1.281862,-1.502730,1.262279,0.065189,0.997684,-0.019378,0.000000,0.000000,0.000000,-1,0.016187,0.010755,-0.002291,-0.008136,-0.001743,-0.008638
"2018-06-07 01:53:15.724 +0000",1528336395.724292,1.278800,-1.502700,1.259193,0.065161,0.997682,-0.019587,0.000000,0.000000,0.000000,-1,0.024617,-0.000190,-0.004493,-0.002966,-0.001985,-0.007742
"2018-06-07 01:53:15.734 +0000",1528336395.734366,1.275922,-1.502666,1.256337,0.065137,0.997680,-0.019784,0.000000,0.000000,0.000000,-1,0.020401,-0.001309,-0.002336,0.001621,-0.003692,-0.002860
"2018-06-07 01:53:15.744 +0000",1528336395.744439,1.273792,-1.502653,1.254148,0.065107,0.997679,-0.019926,0.000000,0.000000,0.000000,-1,0.014082,0.007451,-0.001220,0.007174,-0.005827,0.004225
"2018-06-07 01:53:15.755 +0000",1528336395.754512,1.272945,-1.502637,1.253118,0.065104,0.997678,-0.019986,0.000000,0.000000,0.000000,-1,0.004608,0.020593,-0.000085,0.011663,-0.008069,0.006116
"2018-06-07 01:53:15.765 +0000",1528336395.764586,1.273156,-1.502609,1.253105,0.065135,0.997676,-0.019980,0.000000,0.000000,0.000000,-1,0.000353,0.023848,0.006389,0.013753,-0.007915,0.004798
"2018-06-07 01:53:15.775 +0000",1528336395.774659,1.274512,-1.502602,1.254264,0.065169,0.997676,-0.019894,0.000000,0.000000,0.000000,-1,-0.010153,0.018325,0.007472,0.009721,-0.004054,0.002179
"2018-06-07 01:53:15.785 +0000",1528336395.784732,1.276181,-1.502621,1.255759,0.065185,0.997677,-0.019780,0.000000,0.000000,0.000000,-1,-0.012221,0.018337,0.003174,0.004212,-0.002255,-0.000850
"2018-06-07 01:53:15.795 +0000",1528336395.794805,1.277640,-1.502637,1.257099,0.065199,0.997678,-0.019681,0.000000,0.000000,0.000000,-1,-0.010095,0.009570,0.000993,-0.000075,-0.000135,-0.006977
"2018-06-07 01:53:15.805 +0000",1528336395.804879,1.277811,-1.502645,1.257280,0.065196,0.997679,-0.019667,0.000000,0.000000,0.000000,-1,-0.002720,-0.004676,-0.000141,-0.003230,-0.001036,-0.013017
"2018-06-07 01:53:15.815 +0000",1528336395.814952,1.277253,-1.502643,1.256779,0.065187,0.997678,-0.019704,0.000000,0.000000,0.000000,-1,0.004632,-0.004655,-0.000158,-0.002077,-0.001447,-0.017283
"2018-06-07 01:53:15.825 +0000",1528336395.825025,1.275247,-1.502595,1.254798,0.065192,0.997675,-0.019849,0.000000,0.000000,0.000000,-1,0.018284,-0.002422,-0.000183,0.000924,-0.003260,-0.016513
"2018-06-07 01:53:15.835 +0000",1528336395.835099,1.271967,-1.502502,1.251550,0.065214,0.997669,-0.020089,0.000000,0.000000,0.000000,-1,0.025647,-0.004592,-0.001282,0.004503,-0.004810,-0.011756
"2018-06-07 01:53:15.845 +0000",1528336395.845172,1.269126,-1.502409,1.248764,0.065246,0.997662,-0.020302,0.000000,0.000000,0.000000,-1,0.020380,-0.005713,0.000878,0.007157,-0.003827,-0.006950
"2018-06-07 01:53:15.855 +0000",1528336395.855245,1.266492,-1.502300,1.246130,0.065296,0.997655,-0.020507,0.000000,0.000000,0.000000,-1,0.021408,0.000867,0.003046,0.008435,-0.003987,-0.002015
