timestamp,timeIntervalSince1970,attitude.roll,attitude.pitch,attitude.yaw,gravity.x,gravity.y,gravity.z,magneticField.x,magneticField.y,magneticField.z,magneticField.accuracy,rotationRate.x,rotationRate.y,rotationRate.z,userAcceleration.x,userAcceleration.y,userAcceleration.z
"2018-06-07 01:55:46.163 +0000",1528336546.162578,-0.085105,-0.149707,-0.012723,-0.084052,0.149149,-0.985236,0.000000,0.000000,0.000000,-1,-0.055820,0.880118,0.242118,0.081672,0.060629,-0.176797
"2018-06-07 01:55:46.173 +0000",1528336546.172651,-0.075574,-0.149747,-0.009325,-0.074657,0.149188,-0.985986,0.000000,0.000000,0.000000,-1,0.038826,0.891953,0.362408,0.060772,0.072003,-0.119986
"2018-06-07 01:55:46.183 +0000",1528336546.182724,-0.066042,-0.149647,-0.004930,-0.065257,0.149089,-0.986668,0.000000,0.000000,0.000000,-1,0.030830,0.891579,0.446326,0.024424,0.076054,-0.070735
"2018-06-07 01:55:46.193 +0000",1528336546.192798,-0.054177,-0.150686,-0.000225,-0.053537,0.150116,-0.987218,0.000000,0.000000,0.000000,-1,-0.128255,1.217080,0.469150,-0.007758,0.091598,0.032201
"2018-06-07 01:55:46.203 +0000",1528336546.202871,-0.036195,-0.154792,0.004068,-0.035755,0.154175,-0.987396,0.000000,0.000000,0.000000,-1,-0.489872,1.904568,0.423574,-0.030117,0.108749,0.156281
"2018-06-07 01:55:46.213 +0000",1528336546.212945,-0.009282,-0.163794,0.007471,-0.009157,0.163063,-0.986573,0.000000,0.000000,0.000000,-1,-1.034166,2.888144,0.330873,-0.016081,0.092751,0.276399
"2018-06-07 01:55:46.223 +0000",1528336546.223017,0.026005,-0.178948,0.010078,0.025587,0.177994,-0.983699,0.000000,0.000000,0.000000,-1,-1.658842,3.608165,0.206397,-0.014189,0.043915,0.336986
"2018-06-07 01:55:46.233 +0000",1528336546.233090,0.066188,-0.199065,0.011613,0.064834,0.197753,-0.978105,0.000000,0.000000,0.000000,-1,-2.093576,4.061200,0.000035,-0.037368,0.047074,0.196352
"2018-06-07 01:55:46.243 +0000",1528336546.243165,0.108040,-0.221172,0.011430,0.105203,0.219373,-0.969952,0.000000,0.000000,0.000000,-1,-2.181817,4.146666,-0.282409,-0.053705,0.070391,0.087796
"2018-06-07 01:55:46.253 +0000",1528336546.253237,0.145796,-0.241755,0.009001,0.141055,0.239407,-0.960618,0.000000,0.000000,0.000000,-1,-1.906146,3.642508,-0.556645,-0.043384,0.050616,-0.135604
"2018-06-07 01:55:46.263 +0000",1528336546.263310,0.175540,-0.257948,0.004463,0.168862,0.255097,-0.952056,0.000000,0.000000,0.000000,-1,-1.376913,2.878411,-0.718200,-0.005410,0.021942,-0.341874
"2018-06-07 01:55:46.273 +0000",1528336546.273383,0.199024,-0.268707,-0.001070,0.190618,0.265485,-0.945083,0.000000,0.000000,0.000000,-1,-0.811452,2.368366,-0.704844,0.043757,0.034152,-0.354187
"2018-06-07 01:55:46.283 +0000",1528336546.283456,0.219523,-0.274543,-0.006118,0.209608,0.271107,-0.939449,0.000000,0.000000,0.000000,-1,-0.366056,2.118639,-0.544168,0.088243,0.056011,-0.261814
"2018-06-07 01:55:46.294 +0000",1528336546.293530,0.239464,-0.276971,-0.009330,0.228142,0.273443,-0.934441,0.000000,0.000000,0.000000,-1,-0.115938,2.067741,-0.282431,0.148002,0.058909,-0.150779
"2018-06-07 01:55:46.304 +0000",1528336546.303603,0.262104,-0.278213,-0.009481,0.249150,0.274638,-0.928708,0.000000,0.000000,0.000000,-1,-0.144903,2.346259,0.035761,0.187770,0.086843,-0.006274
"2018-06-07 01:55:46.314 +0000",1528336546.313676,0.291163,-0.281069,-0.005815,0.275802,0.277383,-0.920322,0.000000,0.000000,0.000000,-1,-0.460700,2.941352,0.326488,0.179383,0.170997,0.158389
"2018-06-07 01:55:46.324 +0000",1528336546.323750,0.325202,-0.286710,0.001858,0.306458,0.282798,-0.908905,0.000000,0.000000,0.000000,-1,-0.850539,3.175174,0.592669,0.178589,0.216866,0.227066
"2018-06-07 01:55:46.334 +0000",1528336546.333822,0.357500,-0.294658,0.013461,0.334851,0.290413,-0.896401,0.000000,0.000000,0.000000,-1,-1.198551,2.731910,0.829894,0.207660,0.199669,0.229470
"2018-06-07 01:55:46.344 +0000",1528336546.343896,0.384733,-0.304823,0.027802,0.358010,0.300125,-0.884169,0.000000,0.000000,0.000000,-1,-1.510527,2.140121,0.906334,0.173240,0.133225,0.276152
"2018-06-07 01:55:46.354 +0000",1528336546.353969,0.407086,-0.317200,0.043686,0.376183,0.311908,-0.872468,0.000000,0.000000,0.000000,-1,-1.772665,1.616826,0.912941,0.098075,0.061322,0.270112
"2018-06-07 01:55:46.364 +0000",1528336546.364042,0.427119,-0.330580,0.061167,0.391820,0.324592,-0.860882,0.000000,0.000000,0.000000,-1,-1.905408,1.405357,0.991152,0.058696,0.072915,0.171489
"2018-06-07 01:55:46.374 +0000",1528336546.374115,0.448099,-0.343339,0.080560,0.407966,0.336634,-0.848670,0.000000,0.000000,0.000000,-1,-1.909887,1.471619,1.155929,0.091118,0.131537,0.068259
"2018-06-07 01:55:46.384 +0000",1528336546.384189,0.470963,-0.353920,0.101824,0.425622,0.346578,-0.835900,0.000000,0.000000,0.000000,-1,-1.784510,1.572080,1.366761,0.153785,0.143763,-0.004050
"2018-06-07 01:55:46.394 +0000",1528336546.394262,0.495311,-0.361810,0.124463,0.444533,0.353967,-0.822859,0.000000,0.000000,0.000000,-1,-1.634653,1.646424,1.538737,0.165239,0.114157,-0.035493
"2018-06-07 01:55:46.404 +0000",1528336546.404335,0.520690,-0.367504,0.147817,0.464261,0.359288,-0.809552,0.000000,0.000000,0.000000,-1,-1.524154,1.709979,1.639779,0.130878,0.103679,-0.023807
"2018-06-07 01:55:46.414 +0000",1528336546.414408,0.547258,-0.371808,0.172118,0.484793,0.363300,-0.795605,0.000000,0.000000,0.000000,-1,-1.519806,1.781988,1.748619,0.123499,0.121105,0.049969
"2018-06-07 01:55:46.424 +0000",1528336546.424481,0.575877,-0.375613,0.198775,0.506605,0.366843,-0.780242,0.000000,0.000000,0.000000,-1,-1.679982,1.921271,1.936553,0.179095,0.126214,0.132735
"2018-06-07 01:55:46.435 +0000",1528336546.434556,0.608585,-0.379392,0.229121,0.531053,0.370356,-0.762115,0.000000,0.000000,0.000000,-1,-1.939431,2.208257,2.176775,0.232543,0.135916,0.204284
"2018-06-07 01:55:46.445 +0000",1528336546.444628,0.644850,-0.382639,0.262996,0.557610,0.373370,-0.741395,0.000000,0.000000,0.000000,-1,-2.132366,2.381389,2.386396,0.256874,0.131223,0.190354
"2018-06-07 01:55:46.455 +0000",1528336546.454701,0.682701,-0.384466,0.298983,0.584835,0.375064,-0.719232,0.000000,0.000000,0.000000,-1,-2.191281,2.430025,2.529733,0.223575,0.081159,0.107217
"2018-06-07 01:55:46.465 +0000",1528336546.464774,0.720326,-0.384394,0.335668,0.611493,0.374998,-0.696744,0.000000,0.000000,0.000000,-1,-2.163284,2.326661,2.589605,0.167422,0.023455,0.059262
"2018-06-07 01:55:46.475 +0000",1528336546.474847,0.756213,-0.383322,0.371858,0.636374,0.374003,-0.674647,0.000000,0.000000,0.000000,-1,-2.173041,2.196339,2.508574,0.071634,0.011937,0.061686
"2018-06-07 01:55:46.485 +0000",1528336546.484921,0.801385,-0.385205,0.411217,0.665682,0.375749,-0.644731,0.000000,0.000000,0.000000,-1,-2.319764,2.207664,2.328235,-0.054812,0.003111,0.150362
"2018-06-07 01:55:46.495 +0000",1528336546.494994,0.836623,-0.386126,0.446773,0.687726,0.376603,-0.620646,0.000000,0.000000,0.000000,-1,-2.487152,2.146628,2.112236,-0.114194,-0.021271,0.172343
"2018-06-07 01:55:46.505 +0000",1528336546.505067,0.870931,-0.387434,0.481677,0.708233,0.377814,-0.596373,0.000000,0.000000,0.000000,-1,-2.495610,2.092230,1.989474,-0.113675,-0.066336,0.097090
"2018-06-07 01:55:46.515 +0000",1528336546.515140,0.904703,-0.387241,0.515859,0.728023,0.377635,-0.572165,0.000000,0.000000,0.000000,-1,-2.396959,2.057314,2.004205,-0.030895,-0.107692,0.050345
"2018-06-07 01:55:46.525 +0000",1528336546.525213,0.939876,-0.385671,0.550279,0.748171,0.376181,-0.546558,0.000000,0.000000,0.000000,-1,-2.283509,1.917050,2.019672,0.006284,-0.105750,-0.000393
"2018-06-07 01:55:46.535 +0000",1528336546.535287,0.974887,-0.388070,0.567414,0.766096,0.378403,-0.519526,0.000000,0.000000,0.000000,-1,-1.027702,3.171097,0.138065,-0.987012,0.112640,-0.402684
"2018-06-07 01:55:46.545 +0000",1528336546.545360,1.005507,-0.394970,0.566834,0.779418,0.384781,-0.494418,0.000000,0.000000,0.000000,-1,-0.207572,2.887854,-0.624042,-1.600692,0.016754,-1.116681
"2018-06-07 01:55:46.555 +0000",1528336546.555433,1.030963,-0.396558,0.568369,0.791225,0.386246,-0.474105,0.000000,0.000000,0.000000,-1,-0.220238,2.388470,0.129637,-0.166286,-0.483536,-0.580202
"2018-06-07 01:55:46.566 +0000",1528336546.565506,1.055537,-0.393715,0.574005,0.803588,0.383622,-0.455059,0.000000,0.000000,0.000000,-1,-0.233825,1.948512,0.585537,-0.098342,-0.310029,-0.159748
"2018-06-07 01:55:46.576 +0000",1528336546.575579,1.073322,-0.388552,0.579272,0.813284,0.378849,-0.441635,0.000000,0.000000,0.000000,-1,-0.154366,1.458674,0.693646,-0.268057,-0.015095,-0.187607
"2018-06-07 01:55:46.586 +0000",1528336546.585653,1.087106,-0.383446,0.584163,0.820996,0.374118,-0.431277,0.000000,0.000000,0.000000,-1,-0.172512,1.100980,0.638865,-0.241345,0.136700,-0.082669
"2018-06-07 01:55:46.596 +0000",1528336546.595726,1.098080,-0.380039,0.589099,0.826809,0.370957,-0.422820,0.000000,0.000000,0.000000,-1,-0.276965,0.848961,0.457663,-0.163311,0.137069,0.051375
"2018-06-07 01:55:46.606 +0000",1528336546.605799,1.117825,-0.380730,0.598174,0.834765,0.371598,-0.406301,0.000000,0.000000,0.000000,-1,-0.442976,0.698043,0.210206,-0.124163,0.066100,0.038061
"2018-06-07 01:55:46.616 +0000",1528336546.615872,1.127270,-0.383071,0.604470,0.837777,0.373771,-0.398024,0.000000,0.000000,0.000000,-1,-0.687051,0.718064,-0.013987,-0.048516,-0.008293,0.024016
"2018-06-07 01:55:46.626 +0000",1528336546.625945,1.138492,-0.388823,0.612540,0.840225,0.379100,-0.387690,0.000000,0.000000,0.000000,-1,-0.989841,0.841222,-0.264636,-0.004669,-0.038646,0.097026
"2018-06-07 01:55:46.636 +0000",1528336546.636019,1.151267,-0.397243,0.622367,0.842164,0.386877,-0.375612,0.000000,0.000000,0.000000,-1,-1.212493,0.901595,-0.411314,0.084640,-0.040609,0.149507
"2018-06-07 01:55:46.646 +0000",1528336546.646092,1.174293,-0.406168,0.637070,0.847370,0.395092,-0.354775,0.000000,0.000000,0.000000,-1,-1.172693,0.875809,-0.256587,0.320309,-0.002300,0.073372
"2018-06-07 01:55:46.656 +0000",1528336546.656165,1.185053,-0.410042,0.646331,0.849714,0.398648,-0.345058,0.000000,0.000000,0.000000,-1,-0.839588,0.619758,0.029102,0.435138,0.080951,-0.145787
"2018-06-07 01:55:46.666 +0000",1528336546.666238,1.191711,-0.411937,0.653229,0.851289,0.400385,-0.339113,0.000000,0.000000,0.000000,-1,-0.609389,0.332728,0.041723,0.309539,-0.024378,-0.199584
"2018-06-07 01:55:46.676 +0000",1528336546.676311,1.198033,-0.414851,0.659015,0.852326,0.403053,-0.333298,0.000000,0.000000,0.000000,-1,-0.606186,0.456353,-0.117120,0.100174,-0.136070,-0.066086
"2018-06-07 01:55:46.686 +0000",1528336546.686385,1.216403,-0.420501,0.668562,0.856155,0.408217,-0.316790,0.000000,0.000000,0.000000,-1,-0.705093,0.821204,-0.276103,-0.018813,-0.154861,-0.023465
"2018-06-07 01:55:46.696 +0000",1528336546.696458,1.229652,-0.426474,0.674882,0.857964,0.413663,-0.304598,0.000000,0.000000,0.000000,-1,-0.742374,1.124532,-0.382700,-0.059273,-0.127912,-0.079954
"2018-06-07 01:55:46.707 +0000",1528336546.706531,1.244268,-0.432760,0.680955,0.859844,0.419378,-0.291187,0.000000,0.000000,0.000000,-1,-0.711733,1.202698,-0.415888,-0.043850,-0.106817,-0.103192
"2018-06-07 01:55:46.717 +0000",1528336546.716604,1.257779,-0.438926,0.686325,0.861223,0.424967,-0.278742,0.000000,0.000000,0.000000,-1,-0.626381,1.065792,-0.434767,-0.054491,-0.088938,-0.121557
"2018-06-07 01:55:46.727 +0000",1528336546.726677,1.274418,-0.446078,0.693140,0.862812,0.431431,-0.263480,0.000000,0.000000,0.000000,-1,-0.498258,0.736112,-0.528525,-0.149662,-0.076786,-0.150736
"2018-06-07 01:55:46.737 +0000",1528336546.736751,1.280876,-0.453420,0.695516,0.861437,0.438042,-0.256989,0.000000,0.000000,0.000000,-1,-0.388702,0.491137,-0.676852,-0.222262,-0.041527,-0.154907
"2018-06-07 01:55:46.747 +0000",1528336546.746824,1.285798,-0.462209,0.696833,0.858964,0.445926,-0.251654,0.000000,0.000000,0.000000,-1,-0.361084,0.426055,-0.845981,-0.218949,0.017895,-0.080072
"2018-06-07 01:55:46.757 +0000",1528336546.756897,1.291230,-0.472312,0.698020,0.855944,0.454946,-0.245729,0.000000,0.000000,0.000000,-1,-0.384500,0.513163,-0.953238,-0.150561,0.013804,-0.001235
"2018-06-07 01:55:46.767 +0000",1528336546.766970,1.297604,-0.482657,0.699137,0.852915,0.464134,-0.238985,0.000000,0.000000,0.000000,-1,-0.364587,0.592276,-0.957356,-0.147532,0.004616,-0.007978
"2018-06-07 01:55:46.777 +0000",1528336546.777043,1.309542,-0.493292,0.702432,0.850891,0.473528,-0.227499,0.000000,0.000000,0.000000,-1,-0.261855,0.528748,-0.923356,-0.022125,-0.048724,-0.064417
"2018-06-07 01:55:46.787 +0000",1528336546.787117,1.312665,-0.503154,0.701156,0.847040,0.482191,-0.223637,0.000000,0.000000,0.000000,-1,-0.098222,0.304497,-1.003981,-0.061045,-0.048811,-0.085018
"2018-06-07 01:55:46.797 +0000",1528336546.797190,1.311817,-0.514460,0.697058,0.841527,0.492065,-0.222945,0.000000,0.000000,0.000000,-1,0.103397,0.063446,-1.241785,-0.138798,-0.089019,-0.094712
"2018-06-07 01:55:46.807 +0000",1528336546.807263,1.314133,-0.529064,0.693387,0.835001,0.504725,-0.219147,0.000000,0.000000,0.000000,-1,0.201317,-0.005299,-1.538012,-0.190729,-0.122981,-0.050979
"2018-06-07 01:55:46.817 +0000",1528336546.817336,1.311484,-0.545803,0.685888,0.826134,0.519104,-0.219161,0.000000,0.000000,0.000000,-1,0.190894,0.181482,-1.845079,-0.224221,-0.142106,0.013275
"2018-06-07 01:55:46.827 +0000",1528336546.827409,1.311748,-0.564825,0.677950,0.816498,0.535268,-0.216374,0.000000,0.000000,0.000000,-1,0.156259,0.526851,-2.027930,-0.165253,-0.152150,0.032689
"2018-06-07 01:55:46.837 +0000",1528336546.837483,1.314376,-0.584239,0.670130,0.806859,0.551565,-0.211552,0.000000,0.000000,0.000000,-1,0.142346,0.691422,-2.014512,0.020412,-0.106054,0.067952
"2018-06-07 01:55:46.848 +0000",1528336546.847556,1.319256,-0.603544,0.664089,0.797419,0.567564,-0.204923,0.000000,0.000000,0.000000,-1,0.315418,0.355685,-1.942741,0.148230,-0.079069,-0.040011
"2018-06-07 01:55:46.858 +0000",1528336546.857629,1.314196,-0.620616,0.652974,0.786883,0.581537,-0.206466,0.000000,0.000000,0.000000,-1,0.471390,0.060377,-1.837469,0.173520,-0.076196,-0.074463
"2018-06-07 01:55:46.868 +0000",1528336546.867702,1.306343,-0.636480,0.642881,0.776235,0.594369,-0.210201,0.000000,0.000000,0.000000,-1,0.321401,-0.266706,-1.687487,0.184260,-0.139855,0.080776
"2018-06-07 01:55:46.878 +0000",1528336546.877776,1.302804,-0.651062,0.638074,0.767046,0.606031,-0.210629,0.000000,0.000000,0.000000,-1,-0.147286,0.099757,-1.428268,0.108549,-0.201948,0.246350
"2018-06-07 01:55:46.888 +0000",1528336546.887849,1.308805,-0.665493,0.640030,0.759770,0.617447,-0.203736,0.000000,0.000000,0.000000,-1,-0.634709,0.578864,-1.341858,0.078274,-0.244812,0.410904
"2018-06-07 01:55:46.898 +0000",1528336546.897922,1.320867,-0.682026,0.645105,0.752177,0.630367,-0.192006,0.000000,0.000000,0.000000,-1,-0.823619,0.989772,-1.548905,-0.112041,-0.134944,0.177128
"2018-06-07 01:55:46.908 +0000",1528336546.907995,1.336031,-0.701688,0.650730,0.742802,0.645508,-0.177660,0.000000,0.000000,0.000000,-1,-0.896830,1.106211,-1.877546,-0.252263,-0.064591,0.077272
"2018-06-07 01:55:46.918 +0000",1528336546.918068,1.343284,-0.722926,0.652984,0.730549,0.661582,-0.169137,0.000000,0.000000,0.000000,-1,-0.503944,0.401152,-2.071961,-0.285969,-0.154730,-0.386222
"2018-06-07 01:55:46.928 +0000",1528336546.928142,1.340050,-0.746233,0.646180,0.714790,0.678878,-0.167926,0.000000,0.000000,0.000000,-1,0.103275,0.100389,-2.461459,-0.345527,-0.023254,-0.531064
"2018-06-07 01:55:46.938 +0000",1528336546.938215,1.330283,-0.771889,0.632460,0.695967,0.697490,-0.170694,0.000000,0.000000,0.000000,-1,0.424057,-0.109318,-2.765060,-0.249389,0.152760,-0.124655
"2018-06-07 01:55:46.948 +0000",1528336546.948288,1.317735,-0.796649,0.617310,0.676840,0.715018,-0.175034,0.000000,0.000000,0.000000,-1,0.407742,-0.119029,-2.554224,0.064341,0.123987,0.069657
"2018-06-07 01:55:46.958 +0000",1528336546.958361,1.307916,-0.817471,0.605046,0.660567,0.729418,-0.177764,0.000000,0.000000,0.000000,-1,0.246661,-0.101633,-2.096656,0.273744,0.340177,0.250640
"2018-06-07 01:55:46.968 +0000",1528336546.968434,1.297515,-0.833826,0.595802,0.647108,0.740508,-0.181380,0.000000,0.000000,0.000000,-1,0.145610,-0.478286,-1.611329,0.288363,0.392152,0.279509
"2018-06-07 01:55:46.979 +0000",1528336546.978508,1.285804,-0.846926,0.589535,0.635575,0.749248,-0.186203,0.000000,0.000000,0.000000,-1,0.006975,-0.733529,-1.307346,0.144104,0.378376,0.227096
"2018-06-07 01:55:46.989 +0000",1528336546.988581,1.274721,-0.858726,0.584768,0.624971,0.757011,-0.190642,0.000000,0.000000,0.000000,-1,-0.049695,-0.715562,-1.179162,-0.021517,0.358849,-0.018937
"2018-06-07 01:55:46.999 +0000",1528336546.998654,1.266228,-0.868742,0.580752,0.616066,0.763517,-0.193660,0.000000,0.000000,0.000000,-1,-0.039985,-0.474906,-0.968734,-0.048393,0.242296,-0.179998
"2018-06-07 01:55:47.009 +0000",1528336547.008727,1.260822,-0.876178,0.577438,0.609586,0.768298,-0.195250,0.000000,0.000000,0.000000,-1,-0.013965,-0.234475,-0.693804,0.035159,0.199368,-0.195055
"2018-06-07 01:55:47.019 +0000",1528336547.018800,1.257503,-0.881116,0.575027,0.605318,0.771449,-0.196100,0.000000,0.000000,0.000000,-1,-0.000136,-0.097097,-0.460021,0.057814,0.240697,-0.167700
"2018-06-07 01:55:47.029 +0000",1528336547.028874,1.258909,-0.884168,0.574401,0.603349,0.773388,-0.194526,0.000000,0.000000,0.000000,-1,-0.089318,0.274967,-0.245792,0.038710,0.258259,-0.052102
"2018-06-07 01:55:47.039 +0000",1528336547.038947,1.264490,-0.885781,0.576387,0.603236,0.774409,-0.190779,0.000000,0.000000,0.000000,-1,-0.177905,0.439801,-0.082687,-0.024332,0.209401,-0.085375
"2018-06-07 01:55:47.049 +0000",1528336547.049020,1.272146,-0.886387,0.578304,0.604230,0.774792,-0.186017,0.000000,0.000000,0.000000,-1,-0.114657,0.675671,-0.004699,-0.061078,0.173267,-0.161716
"2018-06-07 01:55:47.059 +0000",1528336547.059093,1.279829,-0.885952,0.579458,0.605964,0.774517,-0.181466,0.000000,0.000000,0.000000,-1,-0.033404,0.630498,0.088565,-0.001044,0.145877,-0.136924
"2018-06-07 01:55:47.069 +0000",1528336547.069166,1.281020,-0.885726,0.578227,0.606347,0.774374,-0.180794,0.000000,0.000000,0.000000,-1,0.135189,0.067288,-0.048991,0.111914,0.190042,-0.159919
"2018-06-07 01:55:47.079 +0000",1528336547.079240,1.273288,-0.885753,0.573149,0.604911,0.774391,-0.185471,0.000000,0.000000,0.000000,-1,0.343118,-0.546651,-0.105035,0.149834,0.097282,-0.064880
"2018-06-07 01:55:47.089 +0000",1528336547.089313,1.258107,-0.886774,0.566606,0.601274,0.775037,-0.194389,0.000000,0.000000,0.000000,-1,0.352286,-1.132148,-0.269182,0.014373,-0.079435,0.062812
"2018-06-07 01:55:47.099 +0000",1528336547.099386,1.241687,-0.889419,0.561180,0.596058,0.776706,-0.203572,0.000000,0.000000,0.000000,-1,0.189236,-1.195868,-0.365802,-0.046452,-0.160571,0.174351
"2018-06-07 01:55:47.109 +0000",1528336547.109459,1.230099,-0.891862,0.560282,0.591870,0.778242,-0.209831,0.000000,0.000000,0.000000,-1,-0.118029,-1.024067,-0.176361,0.002933,-0.198896,0.084663
"2018-06-07 01:55:47.120 +0000",1528336547.119532,1.230330,-0.890565,0.568989,0.592868,0.777428,-0.210030,0.000000,0.000000,0.000000,-1,-0.564511,-0.473562,0.451213,0.104763,-0.449776,0.043175
"2018-06-07 01:55:47.130 +0000",1528336547.129606,1.241417,-0.886721,0.583072,0.597984,0.775004,-0.204410,0.000000,0.000000,0.000000,-1,-0.736027,0.161682,0.686869,-0.066917,-0.305293,0.018466
"2018-06-07 01:55:47.140 +0000",1528336547.139679,1.256583,-0.882577,0.597847,0.604065,0.772378,-0.196308,0.000000,0.000000,0.000000,-1,-0.745546,0.382386,0.668171,-0.144089,-0.026239,-0.079937
"2018-06-07 01:55:47.150 +0000",1528336547.149752,1.268340,-0.879640,0.611585,0.608494,0.770509,-0.189868,0.000000,0.000000,0.000000,-1,-0.745879,0.000029,0.485275,-0.104329,0.116255,-0.223813
"2018-06-07 01:55:47.160 +0000",1528336547.159825,1.275881,-0.879704,0.625527,0.609862,0.770550,-0.185260,0.000000,0.000000,0.000000,-1,-0.884852,-0.426071,0.170266,-0.066755,0.252460,-0.179944
"2018-06-07 01:55:47.170 +0000",1528336547.169898,1.280493,-0.883113,0.640980,0.608189,0.772719,-0.181693,0.000000,0.000000,0.000000,-1,-1.088247,-0.805314,-0.104661,0.010982,0.266802,-0.129831
"2018-06-07 01:55:47.180 +0000",1528336547.179972,1.286208,-0.889455,0.659543,0.604501,0.776729,-0.176834,0.000000,0.000000,0.000000,-1,-1.372166,-0.849070,-0.330024,0.023230,0.158193,-0.044846
"2018-06-07 01:55:47.190 +0000",1528336547.190045,1.295593,-0.898796,0.681784,0.599126,0.782578,-0.169174,0.000000,0.000000,0.000000,-1,-1.654004,-0.769818,-0.567941,0.062892,0.123886,0.018035
"2018-06-07 01:55:47.200 +0000",1528336547.200118,1.308184,-0.910670,0.707208,0.592193,0.789915,-0.159194,0.000000,0.000000,0.000000,-1,-1.864670,-0.721257,-0.769539,0.041871,0.031863,-0.047532
"2018-06-07 01:55:47.210 +0000",1528336547.210191,1.323501,-0.924392,0.735393,0.583996,0.798254,-0.147437,0.000000,0.000000,0.000000,-1,-2.027350,-0.698005,-0.925067,0.002750,-0.054556,-0.082696
"2018-06-07 01:55:47.220 +0000",1528336547.220265,1.342634,-0.939068,0.766116,0.575236,0.807008,-0.133573,0.000000,0.000000,0.000000,-1,-2.134144,-0.454285,-0.999409,-0.024287,-0.097398,-0.048877
"2018-06-07 01:55:47.230 +0000",1528336547.230338,1.369785,-0.953338,0.798750,0.567307,0.815353,-0.115597,0.000000,0.000000,0.000000,-1,-2.149759,0.262390,-0.969321,-0.049881,-0.144317,0.109035
"2018-06-07 01:55:47.240 +0000",1528336547.240411,1.404290,-0.966376,0.831288,0.560425,0.822832,-0.094186,0.000000,0.000000,0.000000,-1,-2.012098,0.920142,-0.922546,-0.051331,-0.121919,0.128381
"2018-06-07 01:55:47.250 +0000",1528336547.250484,1.439759,-0.978153,0.861315,0.553767,0.829467,-0.072982,0.000000,0.000000,0.000000,-1,-1.773968,1.067820,-0.902224,-0.083781,-0.042236,-0.039231
"2018-06-07 01:55:47.261 +0000",1528336547.260557,1.473352,-0.988705,0.889238,0.547163,0.835315,-0.053487,0.000000,0.000000,0.000000,-1,-1.610522,1.013136,-0.842522,-0.088042,0.025327,-0.086024
"2018-06-07 01:55:47.271 +0000",1528336547.270631,1.504038,-0.996425,0.915749,0.542096,0.839534,-0.036243,0.000000,0.000000,0.000000,-1,-1.450713,0.762099,-0.558572,-0.035306,0.034031,-0.016598
"2018-06-07 01:55:47.281 +0000",1528336547.280704,1.528821,-0.999825,0.938766,0.539974,0.841376,-0.022679,0.000000,0.000000,0.000000,-1,-1.178172,0.481336,-0.179235,-0.032222,0.032281,-0.002544
"2018-06-07 01:55:47.291 +0000",1528336547.290777,1.547857,-1.000051,0.955737,0.540117,0.841498,-0.012392,0.000000,0.000000,0.000000,-1,-0.816548,0.495643,0.052318,-0.038805,0.045327,0.014208
"2018-06-07 01:55:47.301 +0000",1528336547.300850,1.562841,-0.999214,0.965535,0.540946,0.841046,-0.004303,0.000000,0.000000,0.000000,-1,-0.426362,0.734773,0.092995,-0.017905,0.069842,0.025818
"2018-06-07 01:55:47.311 +0000",1528336547.310923,1.574457,-0.998528,0.968420,0.541537,0.840675,0.001982,0.000000,0.000000,0.000000,-1,-0.067076,0.956578,0.056245,0.010404,0.071099,0.034303
"2018-06-07 01:55:47.321 +0000",1528336547.320997,1.580556,-0.998129,0.965341,0.541850,0.840458,0.005289,0.000000,0.000000,0.000000,-1,0.239887,0.799415,0.041102,0.028264,0.037914,0.004340
"2018-06-07 01:55:47.331 +0000",1528336547.331070,1.580705,-0.997138,0.957293,0.542682,0.839921,0.005378,0.000000,0.000000,0.000000,-1,0.488216,0.682256,0.133773,0.019803,-0.028398,-0.028922
"2018-06-07 01:55:47.341 +0000",1528336547.341143,1.578935,-0.994849,0.946181,0.544612,0.838677,0.004433,0.000000,0.000000,0.000000,-1,0.626876,0.763354,0.258467,0.021078,-0.111702,0.021279
"2018-06-07 01:55:47.351 +0000",1528336547.351216,1.576315,-0.992653,0.934999,0.546462,0.837479,0.003016,0.000000,0.000000,0.000000,-1,0.581393,0.621941,0.180713,0.003968,-0.236236,-0.022532
"2018-06-07 01:55:47.361 +0000",1528336547.361289,1.574086,-0.992034,0.927020,0.546985,0.837140,0.001800,0.000000,0.000000,0.000000,-1,0.368478,0.380453,0.034210,-0.054203,-0.259961,-0.062881
"2018-06-07 01:55:47.371 +0000",1528336547.371363,1.574388,-0.992591,0.925568,0.546518,0.837445,0.001963,0.000000,0.000000,0.000000,-1,-0.032538,0.068098,-0.091630,-0.056329,-0.205075,-0.052683
"2018-06-07 01:55:47.381 +0000",1528336547.381436,1.578667,-0.994914,0.933093,0.544558,0.838712,0.004286,0.000000,0.000000,0.000000,-1,-0.535944,-0.294769,-0.281922,-0.036608,-0.130476,-0.079070
"2018-06-07 01:55:47.392 +0000",1528336547.391509,1.587598,-0.998844,0.950668,0.541198,0.840846,0.009094,0.000000,0.000000,0.000000,-1,-1.076391,-0.676563,-0.433461,-0.022033,-0.094492,-0.102432
"2018-06-07 01:55:47.402 +0000",1528336547.401582,1.601101,-1.003609,0.977283,0.537015,0.843416,0.016279,0.000000,0.000000,0.000000,-1,-1.507139,-0.928768,-0.524638,-0.005154,-0.026536,-0.087919
"2018-06-07 01:55:47.412 +0000",1528336547.411655,1.619665,-1.008470,1.009134,0.532519,0.846017,0.026044,0.000000,0.000000,0.000000,-1,-1.705591,-0.757945,-0.553805,-0.025531,0.181601,0.013964
"2018-06-07 01:55:47.422 +0000",1528336547.421729,1.641724,-1.012836,1.040933,0.528125,0.848337,0.037522,0.000000,0.000000,0.000000,-1,-1.603289,-0.394455,-0.516410,-0.016055,0.297812,0.093292
"2018-06-07 01:55:47.432 +0000",1528336547.431802,1.661794,-1.015361,1.065907,0.525131,0.849671,0.047918,0.000000,0.000000,0.000000,-1,-1.140172,-0.028610,-0.277613,0.066925,0.239563,0.057703
"2018-06-07 01:55:47.442 +0000",1528336547.441875,1.671135,-1.014101,1.075226,0.525725,0.849006,0.052928,0.000000,0.000000,0.000000,-1,-0.258713,0.192439,0.212581,0.174287,0.107873,-0.064464
"2018-06-07 01:55:47.452 +0000",1528336547.451948,1.669031,-1.008883,1.066198,0.530237,0.846237,0.052256,0.000000,0.000000,0.000000,-1,0.623915,0.716698,0.649872,0.200415,-0.002533,-0.121485
"2018-06-07 01:55:47.462 +0000",1528336547.462021,1.662822,-1.002814,1.045907,0.535655,0.842988,0.049434,0.000000,0.000000,0.000000,-1,1.112662,1.158105,0.687685,0.117375,-0.025117,-0.068645
"2018-06-07 01:55:47.472 +0000",1528336547.472095,1.654926,-0.998968,1.024156,0.539256,0.840913,0.045475,0.000000,0.000000,0.000000,-1,1.085735,0.940814,0.391312,-0.047267,0.096084,-0.122043
"2018-06-07 01:55:47.482 +0000",1528336547.482169,1.648377,-0.998638,1.010424,0.539818,0.840734,0.041964,0.000000,0.000000,0.000000,-1,0.582083,0.326341,-0.009462,-0.195916,0.238016,-0.061816
"2018-06-07 01:55:47.492 +0000",1528336547.492242,1.646680,-1.001380,1.009128,0.537589,0.842216,0.040873,0.000000,0.000000,0.000000,-1,-0.059884,-0.151618,-0.333151,-0.244788,0.249016,0.030416
"2018-06-07 01:55:47.502 +0000",1528336547.502315,1.648869,-1.005176,1.015100,0.534307,0.844256,0.041800,0.000000,0.000000,0.000000,-1,-0.326959,-0.318894,-0.411549,-0.140538,0.109662,0.057352
"2018-06-07 01:55:47.512 +0000",1528336547.512388,1.650825,-1.009331,1.021251,0.530723,0.846476,0.042564,0.000000,0.000000,0.000000,-1,-0.264768,-0.298830,-0.442826,-0.047447,0.006765,-0.041572
"2018-06-07 01:55:47.522 +0000",1528336547.522462,1.652320,-1.013263,1.024491,0.527337,0.848563,0.043086,0.000000,0.000000,0.000000,-1,-0.093159,-0.063661,-0.387677,0.012824,-0.038855,-0.029155
"2018-06-07 01:55:47.533 +0000",1528336547.532535,1.653852,-1.016760,1.024476,0.524310,0.850408,0.043648,0.000000,0.000000,0.000000,-1,0.067894,0.224171,-0.332351,0.010587,-0.056508,0.026222
"2018-06-07 01:55:47.543 +0000",1528336547.542608,1.656054,-1.020063,1.021732,0.521412,0.852141,0.044562,0.000000,0.000000,0.000000,-1,0.199792,0.523044,-0.311346,-0.009037,-0.050429,0.057275
"2018-06-07 01:55:47.553 +0000",1528336547.552681,1.658949,-1.023036,1.017135,0.518754,0.853693,0.045849,0.000000,0.000000,0.000000,-1,0.276904,0.705248,-0.253984,-0.011613,-0.049341,0.049534
"2018-06-07 01:55:47.563 +0000",1528336547.562755,1.661569,-1.024997,1.011863,0.516964,0.854713,0.047056,0.000000,0.000000,0.000000,-1,0.288639,0.698216,-0.140013,-0.000027,-0.102485,-0.018507
"2018-06-07 01:55:47.573 +0000",1528336547.572828,1.663713,-1.026086,1.006322,0.515935,0.855277,0.048078,0.000000,0.000000,0.000000,-1,0.297508,0.679251,-0.061566,0.009318,-0.104697,-0.059659
"2018-06-07 01:55:47.583 +0000",1528336547.582901,1.665272,-1.026437,1.000510,0.515560,0.855459,0.048853,0.000000,0.000000,0.000000,-1,0.296992,0.631739,0.011441,0.014393,-0.065054,-0.050532
"2018-06-07 01:55:47.593 +0000",1528336547.592974,1.666084,-1.026185,0.995833,0.515735,0.855329,0.049292,0.000000,0.000000,0.000000,-1,0.207531,0.409526,0.062630,0.017041,-0.033658,-0.062735
"2018-06-07 01:55:47.603 +0000",1528336547.603047,1.666460,-1.025286,0.993556,0.516482,0.854863,0.049560,0.000000,0.000000,0.000000,-1,0.080294,0.183933,0.109594,0.047712,-0.011830,-0.085540
"2018-06-07 01:55:47.613 +0000",1528336547.613121,1.666042,-1.023420,0.991516,0.518089,0.853893,0.049495,0.000000,0.000000,0.000000,-1,0.121295,0.120890,0.249150,0.033364,-0.016186,-0.051769
"2018-06-07 01:55:47.623 +0000",1528336547.623194,1.661696,-1.021700,0.987077,0.519761,0.852997,0.047377,0.000000,0.000000,0.000000,-1,0.228629,-0.152715,0.120107,-0.046098,-0.186706,-0.086195
"2018-06-07 01:55:47.633 +0000",1528336547.633267,1.652734,-1.023586,0.981886,0.518561,0.853979,0.042585,0.000000,0.000000,0.000000,-1,0.300070,-0.514337,-0.247904,-0.069770,-0.303549,-0.117719
"2018-06-07 01:55:47.643 +0000",1528336547.643340,1.643064,-1.026917,0.976419,0.516108,0.855708,0.037363,0.000000,0.000000,0.000000,-1,0.301485,-0.472398,-0.300492,-0.063059,-0.340388,0.016958
"2018-06-07 01:55:47.653 +0000",1528336547.653413,1.633327,-1.029529,0.971274,0.514215,0.857057,0.032196,0.000000,0.000000,0.000000,-1,0.277964,-0.566048,-0.235096,-0.063196,-0.234773,0.038116
"2018-06-07 01:55:47.663 +0000",1528336547.663487,1.621568,-1.032799,0.966563,0.511756,0.858737,0.026005,0.000000,0.000000,0.000000,-1,0.243359,-0.839026,-0.345526,-0.080131,-0.167468,-0.040852
"2018-06-07 01:55:47.674 +0000",1528336547.673560,1.608629,-1.037507,0.963243,0.508005,0.861139,0.019228,0.000000,0.000000,0.000000,-1,0.166944,-1.040619,-0.491150,-0.083093,-0.071482,-0.038729
"2018-06-07 01:55:47.684 +0000",1528336547.683633,1.596603,-1.043315,0.961336,0.503191,0.864078,0.012988,0.000000,0.000000,0.000000,-1,0.103710,-1.010683,-0.603861,-0.068513,0.021817,0.012631
"2018-06-07 01:55:47.694 +0000",1528336547.693706,1.586534,-1.050311,0.960274,0.497239,0.867578,0.007826,0.000000,0.000000,0.000000,-1,0.051950,-0.879712,-0.718455,-0.058442,0.009161,0.053285
"2018-06-07 01:55:47.704 +0000",1528336547.703779,1.578829,-1.057961,0.960453,0.490634,0.871357,0.003941,0.000000,0.000000,0.000000,-1,-0.007682,-0.733669,-0.767374,-0.024157,-0.027729,0.029384
"2018-06-07 01:55:47.714 +0000",1528336547.713853,1.572260,-1.065707,0.959321,0.483885,0.875131,0.000708,0.000000,0.000000,0.000000,-1,0.087573,-0.507324,-0.752950,-0.029082,-0.108697,-0.062262
"2018-06-07 01:55:47.724 +0000",1528336547.723926,1.564347,-1.071738,0.957494,0.478589,0.878034,-0.003087,0.000000,0.000000,0.000000,-1,0.069280,-0.686117,-0.537223,0.054523,-0.179303,-0.106884
"2018-06-07 01:55:47.734 +0000",1528336547.733999,1.556755,-1.075234,0.958538,0.475479,0.879701,-0.006677,0.000000,0.000000,0.000000,-1,-0.103602,-0.892903,-0.293258,0.130325,-0.219377,0.001916
"2018-06-07 01:55:47.744 +0000",1528336547.744072,1.549949,-1.078129,0.963396,0.472875,0.881074,-0.009859,0.000000,0.000000,0.000000,-1,-0.261804,-1.195169,-0.307758,0.077968,-0.264055,0.048617
"2018-06-07 01:55:47.754 +0000",1528336547.754145,1.537352,-1.084167,0.966556,0.467387,0.883914,-0.015637,0.000000,0.000000,0.000000,-1,-0.095245,-1.625401,-0.743951,-0.062251,-0.290469,-0.039172
"2018-06-07 01:55:47.764 +0000",1528336547.764219,1.511274,-1.099431,0.959192,0.453298,0.890949,-0.027013,0.000000,0.000000,0.000000,-1,0.406227,-2.051916,-1.845650,-0.285268,-0.261753,-0.115733
"2018-06-07 01:55:47.774 +0000",1528336547.774292,1.464970,-1.127049,0.934110,0.426924,0.903149,-0.045349,0.000000,0.000000,0.000000,-1,1.014029,-2.468640,-3.117515,-0.355009,-0.047131,-0.149170
"2018-06-07 01:55:47.784 +0000",1528336547.784365,1.394450,-1.161168,0.888063,0.392092,0.917269,-0.069870,0.000000,0.000000,0.000000,-1,1.517070,-2.972945,-3.730025,-0.297014,0.078474,-0.178101
"2018-06-07 01:55:47.794 +0000",1528336547.794438,1.293869,-1.195451,0.816520,0.352626,0.930381,-0.100227,0.000000,0.000000,0.000000,-1,1.997650,-3.578627,-4.003950,-0.231090,0.045388,-0.297112
"2018-06-07 01:55:47.805 +0000",1528336547.804512,1.163866,-1.225029,0.720246,0.311242,0.940816,-0.134141,0.000000,0.000000,0.000000,-1,2.218223,-4.069543,-3.806889,-0.074135,0.041774,-0.258300
"2018-06-07 01:55:47.815 +0000",1528336547.814585,1.024860,-1.244463,0.617949,0.273973,0.947224,-0.166446,0.000000,0.000000,0.000000,-1,2.028090,-4.211914,-2.965713,0.285505,0.173183,-0.007336
"2018-06-07 01:55:47.825 +0000",1528336547.824658,0.916669,-1.249196,0.541803,0.250838,0.948731,-0.192327,0.000000,0.000000,0.000000,-1,1.597844,-3.218661,-1.361279,0.746416,0.477691,0.206838
"2018-06-07 01:55:47.835 +0000",1528336547.834731,0.853031,-1.251857,0.490514,0.236196,0.949569,-0.206228,0.000000,0.000000,0.000000,-1,0.885898,-0.887717,-1.399120,0.699061,0.563691,0.290457
"2018-06-07 01:55:47.845 +0000",1528336547.844804,0.802515,-1.264680,0.436309,0.216707,0.953511,-0.209413,0.000000,0.000000,0.000000,-1,0.183057,0.287753,-2.069596,0.379637,0.224010,0.132157
"2018-06-07 01:55:47.855 +0000",1528336547.854878,0.777444,-1.275023,0.407225,0.204461,0.956577,-0.207739,0.000000,0.000000,0.000000,-1,-0.171070,0.188209,-1.078406,0.658622,-0.122242,-0.043558
"2018-06-07 01:55:47.865 +0000",1528336547.864951,0.768485,-1.280423,0.400544,0.198998,0.958137,-0.205846,0.000000,0.000000,0.000000,-1,-0.273976,-0.422309,-0.322692,0.663947,-0.543403,-0.097590
"2018-06-07 01:55:47.875 +0000",1528336547.875024,0.775805,-1.280117,0.417009,0.200705,0.958050,-0.204593,0.000000,0.000000,0.000000,-1,-0.289939,-0.941026,0.589058,0.588907,-0.640041,-0.029736
"2018-06-07 01:55:47.885 +0000",1528336547.885097,0.793970,-1.272457,0.445176,0.209616,0.955826,-0.206053,0.000000,0.000000,0.000000,-1,0.071484,-0.783568,1.239454,0.330820,-0.449707,0.039457
"2018-06-07 01:55:47.895 +0000",1528336547.895170,0.810475,-1.261477,0.464508,0.220580,0.952541,-0.209785,0.000000,0.000000,0.000000,-1,0.409225,0.026067,1.063554,-0.320281,0.074498,0.162270
"2018-06-07 01:55:47.905 +0000",1528336547.905244,0.813233,-1.256926,0.461132,0.224305,0.951146,-0.212153,0.000000,0.000000,0.000000,-1,0.348813,0.735321,-0.047537,-0.989075,0.560939,0.220454
"2018-06-07 01:55:47.915 +0000",1528336547.915317,0.796447,-1.261962,0.438252,0.217285,0.952689,-0.212536,0.000000,0.000000,0.000000,-1,0.090284,0.300869,-1.068996,-1.159958,0.567728,0.057079
"2018-06-07 01:55:47.925 +0000",1528336547.925390,0.757408,-1.273370,0.404498,0.201344,0.956094,-0.212944,0.000000,0.000000,0.000000,-1,-0.172136,-1.020405,-1.611137,-0.800099,0.288505,-0.180138
"2018-06-07 01:55:47.935 +0000",1528336547.935463,0.705298,-1.286808,0.368044,0.181634,0.959945,-0.213339,0.000000,0.000000,0.000000,-1,-0.330796,-1.857240,-1.636872,-0.399987,0.094940,-0.062616
"2018-06-07 01:55:47.946 +0000",1528336547.945536,0.656299,-1.298974,0.337056,0.163828,0.963283,-0.212710,0.000000,0.000000,0.000000,-1,-0.436062,-1.871986,-1.331190,-0.126703,-0.059902,0.163913
"2018-06-07 01:55:47.956 +0000",1528336547.955610,0.619017,-1.310534,0.315491,0.149314,0.966322,-0.209585,0.000000,0.000000,0.000000,-1,-0.650394,-1.551949,-1.088824,0.003274,-0.063384,0.233999
"2018-06-07 01:55:47.966 +0000",1528336547.965683,0.592654,-1.323536,0.301780,0.136708,0.969587,-0.203009,0.000000,0.000000,0.000000,-1,-0.936072,-1.229299,-0.993650,0.070079,0.044787,0.177786
"2018-06-07 01:55:47.976 +0000",1528336547.975756,0.575844,-1.336983,0.295229,0.126164,0.972790,-0.194324,0.000000,0.000000,0.000000,-1,-1.030194,-0.976768,-0.804462,0.134609,0.071644,0.056339
"2018-06-07 01:55:47.986 +0000",1528336547.985829,0.565357,-1.347904,0.293642,0.118420,0.975262,-0.186654,0.000000,0.000000,0.000000,-1,-0.835784,-0.875175,-0.556138,0.135959,-0.010831,-0.077231
"2018-06-07 01:55:47.996 +0000",1528336547.995902,0.552803,-1.356251,0.290270,0.111790,0.977073,-0.181192,0.000000,0.000000,0.000000,-1,-0.610322,-0.942841,-0.500918,0.059826,0.025429,-0.183203
"2018-06-07 01:55:48.006 +0000",1528336548.005976,0.533773,-1.363244,0.280852,0.104843,0.978538,-0.177400,0.000000,0.000000,0.000000,-1,-0.460846,-0.971902,-0.540068,-0.022155,0.028160,-0.184020
"2018-06-07 01:55:48.016 +0000",1528336548.016049,0.510792,-1.370270,0.266967,0.097375,0.979962,-0.173760,0.000000,0.000000,0.000000,-1,-0.485541,-0.922265,-0.613011,-0.085061,-0.086789,-0.104789
"2018-06-07 01:55:48.026 +0000",1528336548.026122,0.482945,-1.379508,0.247985,0.088291,0.981760,-0.168379,0.000000,0.000000,0.000000,-1,-0.693971,-0.927443,-0.825526,-0.220096,-0.252375,-0.004488
"2018-06-07 01:55:48.036 +0000",1528336548.036195,0.436922,-1.395629,0.213828,0.073744,0.984697,-0.157900,0.000000,0.000000,0.000000,-1,-1.439199,-1.439299,-1.512648,-0.485273,-1.058092,0.087832
"2018-06-07 01:55:48.046 +0000",1528336548.046268,0.458080,-1.417776,0.256278,0.067405,0.988315,-0.136708,0.000000,0.000000,0.000000,-1,-2.352892,-2.298252,0.358568,-0.633217,-2.676425,0.343480
"2018-06-07 01:55:48.056 +0000",1528336548.056342,0.554667,-1.428005,0.383421,0.074946,0.989823,-0.120970,0.000000,0.000000,0.000000,-1,-1.559044,-3.045319,1.024704,-0.147029,-0.692993,0.209684
"2018-06-07 01:55:48.066 +0000",1528336548.066415,0.577899,-1.437986,0.437837,0.072336,0.991194,-0.110916,0.000000,0.000000,0.000000,-1,-1.192491,-3.002904,-0.209777,-0.132929,1.134615,0.210068
"2018-06-07 01:55:48.076 +0000",1528336548.076488,0.528065,-1.454872,0.414566,0.058278,0.993288,-0.099908,0.000000,0.000000,0.000000,-1,-1.332157,-2.474785,-1.372844,-0.010091,2.007200,0.074990
"2018-06-07 01:55:48.087 +0000",1528336548.086561,0.438427,-1.474410,0.341898,0.040853,0.995358,-0.087133,0.000000,0.000000,0.000000,-1,-1.355851,-1.471814,-1.557035,0.145960,1.218204,-0.038783
"2018-06-07 01:55:48.097 +0000",1528336548.096634,0.360151,-1.490937,0.272096,0.028112,0.996813,-0.074652,0.000000,0.000000,0.000000,-1,-1.223933,-0.704035,-1.049550,0.376383,0.352308,-0.181879
"2018-06-07 01:55:48.107 +0000",1528336548.106708,0.324394,-1.501739,0.240302,0.021992,0.997616,-0.065399,0.000000,0.000000,0.000000,-1,-0.813114,-0.321264,-0.430882,0.448986,-0.076871,-0.344330
"2018-06-07 01:55:48.117 +0000",1528336548.116781,0.334936,-1.506467,0.252396,0.021130,0.997932,-0.060709,0.000000,0.000000,0.000000,-1,-0.376716,-0.100201,0.022684,0.264027,-0.224647,-0.322852
"2018-06-07 01:55:48.127 +0000",1528336548.126854,0.384044,-1.509169,0.301606,0.023074,0.998102,-0.057097,0.000000,0.000000,0.000000,-1,-0.405752,0.019593,0.232850,0.026456,-0.187326,-0.133241
"2018-06-07 01:55:48.137 +0000",1528336548.136927,0.476688,-1.514351,0.394667,0.025883,0.998407,-0.050121,0.000000,0.000000,0.000000,-1,-0.793682,-0.062957,0.289432,-0.148060,-0.174646,0.042965
"2018-06-07 01:55:48.147 +0000",1528336548.147001,0.630509,-1.522513,0.551291,0.028450,0.998835,-0.038978,0.000000,0.000000,0.000000,-1,-1.219534,-0.331817,0.246599,-0.217232,-0.091654,0.129203
"2018-06-07 01:55:48.157 +0000",1528336548.157074,0.887522,-1.532509,0.814801,0.029679,0.999267,-0.024161,0.000000,0.000000,0.000000,-1,-1.571963,-0.710887,0.093562,-0.173783,0.050934,0.193839
"2018-06-07 01:55:48.167 +0000",1528336548.167147,1.327628,-1.541255,1.264363,0.028657,0.999564,-0.007109,0.000000,0.000000,0.000000,-1,-1.751602,-0.981548,-0.142380,-0.129579,0.213998,0.244765
"2018-06-07 01:55:48.177 +0000",1528336548.177220,1.952504,-1.542404,1.900683,0.026337,0.999597,0.010571,0.000000,0.000000,0.000000,-1,-1.792650,-1.142591,-0.248168,-0.063370,0.163367,0.166843
"2018-06-07 01:55:48.187 +0000",1528336548.187293,2.422780,-1.533919,2.383208,0.024272,0.999320,0.027741,0.000000,0.000000,0.000000,-1,-1.703550,-1.203948,-0.217357,-0.003322,0.069131,0.020980
"2018-06-07 01:55:48.197 +0000",1528336548.197367,2.657690,-1.522520,2.629962,0.022449,0.998835,0.042713,0.000000,0.000000,0.000000,-1,-1.430543,-1.116464,-0.217728,0.005047,0.166067,-0.223347
"2018-06-07 01:55:48.207 +0000",1528336548.207440,2.770454,-1.513076,2.751684,0.020921,0.998335,0.053757,0.000000,0.000000,0.000000,-1,-1.010903,-0.779474,-0.195120,-0.003434,0.243990,-0.386932
"2018-06-07 01:55:48.218 +0000",1528336548.217513,2.837586,-1.507713,2.823642,0.018870,0.998011,0.060146,0.000000,0.000000,0.000000,-1,-0.520391,-0.367328,-0.246675,0.004812,0.334188,-0.380718
"2018-06-07 01:55:48.228 +0000",1528336548.227586,2.882888,-1.506221,2.869596,0.016507,0.997916,0.062377,0.000000,0.000000,0.000000,-1,-0.141796,0.046386,-0.222674,0.021274,0.274347,-0.289230
"2018-06-07 01:55:48.238 +0000",1528336548.237659,2.910218,-1.506549,2.894125,0.014722,0.997937,0.062487,0.000000,0.000000,0.000000,-1,0.025360,0.344011,-0.142594,0.006946,0.202426,-0.085451
"2018-06-07 01:55:48.248 +0000",1528336548.247733,2.925845,-1.508154,2.906215,0.013400,0.998039,0.061144,0.000000,0.000000,0.000000,-1,0.179472,0.327808,-0.103195,-0.019717,0.247155,0.026502
"2018-06-07 01:55:48.258 +0000",1528336548.257806,2.932965,-1.511481,2.912169,0.012277,0.998241,0.057991,0.000000,0.000000,0.000000,-1,0.353084,0.031906,-0.106605,-0.048944,0.295750,0.009484
"2018-06-07 01:55:48.268 +0000",1528336548.267879,2.933358,-1.515554,2.914494,0.011413,0.998475,0.054014,0.000000,0.000000,0.000000,-1,0.391000,-0.253500,-0.084933,-0.073577,0.268676,-0.001768
"2018-06-07 01:55:48.278 +0000",1528336548.277952,2.916621,-1.519040,2.900876,0.011539,0.998661,0.050421,0.000000,0.000000,0.000000,-1,0.343947,-0.309005,0.031183,-0.067035,0.172054,0.013803
"2018-06-07 01:55:48.288 +0000",1528336548.288025,2.863851,-1.522231,2.850077,0.013307,0.998821,0.046672,0.000000,0.000000,0.000000,-1,0.388608,-0.154862,0.214389,-0.039949,0.114979,-0.008709
"2018-06-07 01:55:48.298 +0000",1528336548.298099,2.753762,-1.525741,2.739485,0.017026,0.998985,0.041678,0.000000,0.000000,0.000000,-1,0.538000,0.109240,0.423490,-0.023938,0.115990,-0.066138
"2018-06-07 01:55:48.308 +0000",1528336548.308172,2.571528,-1.529236,2.553413,0.022414,0.999137,0.034964,0.000000,0.000000,0.000000,-1,0.718171,0.453781,0.581124,-0.029967,0.169549,-0.108969
"2018-06-07 01:55:48.318 +0000",1528336548.318245,2.305093,-1.531138,2.279499,0.029415,0.999214,0.026553,0.000000,0.000000,0.000000,-1,0.902254,0.806962,0.775346,-0.025066,0.207680,-0.134799
"2018-06-07 01:55:48.328 +0000",1528336548.328318,1.965272,-1.528550,1.928663,0.038970,0.999108,0.016223,0.000000,0.000000,0.000000,-1,1.117337,1.150065,1.037233,0.017884,0.152397,-0.160144
"2018-06-07 01:55:48.338 +0000",1528336548.338391,1.655576,-1.519171,1.604509,0.051399,0.998668,0.004368,0.000000,0.000000,0.000000,-1,1.278657,1.481929,1.326102,0.029366,0.128972,-0.140538
"2018-06-07 01:55:48.348 +0000",1528336548.348465,1.448602,-1.502672,1.380049,0.067555,0.997680,-0.008296,0.000000,0.000000,0.000000,-1,1.380518,1.773738,1.703193,0.031536,0.074738,-0.086385
"2018-06-07 01:55:48.359 +0000",1528336548.358538,1.337487,-1.480089,1.247938,0.088122,0.995889,-0.020941,0.000000,0.000000,0.000000,-1,1.411731,2.117920,2.109641,0.035001,-0.026239,0.004416
"2018-06-07 01:55:48.369 +0000",1528336548.368611,1.297181,-1.455615,1.185436,0.110647,0.993374,-0.031054,0.000000,0.000000,0.000000,-1,1.150572,2.171742,2.191069,-0.099814,-0.078671,0.112139
"2018-06-07 01:55:48.379 +0000",1528336548.378684,1.298729,-1.434155,1.165209,0.131201,0.990679,-0.036603,0.000000,0.000000,0.000000,-1,0.634479,2.148754,1.832919,-0.274481,-0.103411,0.226484
"2018-06-07 01:55:48.389 +0000",1528336548.388757,1.345485,-1.423029,1.190043,0.143504,0.989102,-0.032891,0.000000,0.000000,0.000000,-1,-0.260032,2.214711,0.955281,-0.333110,-0.166562,0.364282
"2018-06-07 01:55:48.399 +0000",1528336548.398831,1.413384,-1.418578,1.236148,0.149752,0.988437,-0.023770,0.000000,0.000000,0.000000,-1,-0.655451,2.199160,0.474253,-0.236926,-0.237598,0.287090
"2018-06-07 01:55:48.409 +0000",1528336548.408904,1.482833,-1.416168,1.285945,0.153414,0.988069,-0.013530,0.000000,0.000000,0.000000,-1,-0.727323,1.917588,0.293965,-0.114886,-0.275758,0.156367
"2018-06-07 01:55:48.419 +0000",1528336548.418977,1.544183,-1.414193,1.332940,0.155905,0.987763,-0.004150,0.000000,0.000000,0.000000,-1,-0.703123,1.311968,0.226534,-0.037420,-0.210938,0.060226
"2018-06-07 01:55:48.429 +0000",1528336548.429050,1.593005,-1.411912,1.374954,0.158172,0.987404,0.003513,0.000000,0.000000,0.000000,-1,-0.636229,0.525040,0.229470,0.023346,-0.106072,0.008434
"2018-06-07 01:55:48.439 +0000",1528336548.439123,1.626138,-1.409198,1.409217,0.160645,0.986971,0.008899,0.000000,0.000000,0.000000,-1,-0.518027,-0.258538,0.252735,0.060302,-0.025240,-0.020969
"2018-06-07 01:55:48.449 +0000",1528336548.449197,1.642243,-1.406591,1.433430,0.163046,0.986549,0.011669,0.000000,0.000000,0.000000,-1,-0.371102,-0.932003,0.214943,0.063227,0.030190,-0.058925
"2018-06-07 01:55:48.459 +0000",1528336548.459270,1.646746,-1.405291,1.451239,0.164271,0.986335,0.012500,0.000000,0.000000,0.000000,-1,-0.282323,-1.396579,0.063874,0.060400,0.048470,-0.112720
"2018-06-07 01:55:48.469 +0000",1528336548.469343,1.647036,-1.405860,1.467437,0.163707,0.986429,0.012505,0.000000,0.000000,0.000000,-1,-0.256576,-1.579062,-0.120651,0.098057,0.043783,-0.169457
"2018-06-07 01:55:48.479 +0000",1528336548.479416,1.647947,-1.407434,1.482529,0.162148,0.986686,0.012535,0.000000,0.000000,0.000000,-1,-0.216534,-1.276837,-0.174722,0.151954,0.023293,-0.168846
"2018-06-07 01:55:48.489 +0000",1528336548.489490,1.648540,-1.408130,1.490311,0.161456,0.986799,0.012577,0.000000,0.000000,0.000000,-1,-0.079716,-0.482256,-0.035041,0.202650,-0.030042,-0.095173
"2018-06-07 01:55:48.500 +0000",1528336548.499563,1.646812,-1.406375,1.486231,0.163202,0.986513,0.012430,0.000000,0.000000,0.000000,-1,0.096778,0.456715,0.254484,0.238317,-0.086260,-0.015588
"2018-06-07 01:55:48.510 +0000",1528336548.509636,1.643565,-1.402143,1.472313,0.167406,0.985812,0.012203,0.000000,0.000000,0.000000,-1,0.224545,1.204787,0.484404,0.207045,-0.099383,0.025699
"2018-06-07 01:55:48.520 +0000",1528336548.519709,1.641234,-1.396716,1.455104,0.172768,0.984886,0.012190,0.000000,0.000000,0.000000,-1,0.254115,1.492149,0.564770,0.088066,-0.003777,0.003710
"2018-06-07 01:55:48.530 +0000",1528336548.529782,1.637944,-1.391768,1.437619,0.177668,0.984017,0.011948,0.000000,0.000000,0.000000,-1,0.281147,1.316912,0.485676,-0.036646,0.076896,-0.061890
"2018-06-07 01:55:48.540 +0000",1528336548.539856,1.628439,-1.388024,1.417016,0.181450,0.983344,0.010471,0.000000,0.000000,0.000000,-1,0.369590,0.976265,0.362935,-0.103569,0.091150,-0.115512
"2018-06-07 01:55:48.550 +0000",1528336548.549929,1.610404,-1.385366,1.391587,0.184219,0.982857,0.007300,0.000000,0.000000,0.000000,-1,0.470532,0.599350,0.258345,-0.135620,0.061699,-0.126639
"2018-06-07 01:55:48.560 +0000",1528336548.560002,1.586948,-1.383682,1.364253,0.185994,0.982545,0.003004,0.000000,0.000000,0.000000,-1,0.498944,0.255152,0.157244,-0.164952,0.050765,-0.076079
"2018-06-07 01:55:48.570 +0000",1528336548.570075,1.563328,-1.382602,1.340032,0.187075,0.982344,-0.001397,0.000000,0.000000,0.000000,-1,0.421969,-0.059876,0.098419,-0.156359,-0.015455,-0.000876
"2018-06-07 01:55:48.580 +0000",1528336548.580148,1.507106,-1.377419,1.286753,0.191781,0.981361,-0.012231,0.000000,0.000000,0.000000,-1,0.281628,-0.308270,0.076505,-0.117990,-0.105018,0.057473
"2018-06-07 01:55:48.590 +0000",1528336548.590222,1.493992,-1.376692,1.276894,0.192316,0.981221,-0.014800,0.000000,0.000000,0.000000,-1,0.163133,-0.339248,0.055173,-0.078608,0.005825,0.125441
"2018-06-07 01:55:48.600 +0000",1528336548.600295,1.487827,-1.376128,1.273815,0.192773,0.981112,-0.016031,0.000000,0.000000,0.000000,-1,0.028707,-0.298974,0.048069,-0.047174,0.020994,0.150904
"2018-06-07 01:55:48.610 +0000",1528336548.610368,1.489387,-1.375916,1.277586,0.193006,0.981071,-0.015747,0.000000,0.000000,0.000000,-1,-0.099331,-0.177359,0.019673,-0.027281,-0.005851,0.125916
"2018-06-07 01:55:48.620 +0000",1528336548.620441,1.470730,-1.372955,1.260476,0.195569,0.980493,-0.019635,0.000000,0.000000,0.000000,-1,-0.200174,-0.057926,0.006268,-0.010449,-0.000742,0.098996
"2018-06-07 01:55:48.631 +0000",1528336548.630514,1.482721,-1.373093,1.272642,0.195656,0.980520,-0.017277,0.000000,0.000000,0.000000,-1,-0.242308,0.023168,0.011979,-0.004493,-0.002524,0.049992
"2018-06-07 01:55:48.641 +0000",1528336548.640588,1.494869,-1.372980,1.284596,0.195962,0.980498,-0.014908,0.000000,0.000000,0.000000,-1,-0.223579,0.043992,0.032434,-0.002312,0.010270,0.004074
"2018-06-07 01:55:48.651 +0000",1528336548.650661,1.504608,-1.372724,1.294256,0.196348,0.980448,-0.013015,0.000000,0.000000,0.000000,-1,-0.172135,0.017763,0.038694,-0.024229,0.017553,-0.034257
"2018-06-07 01:55:48.661 +0000",1528336548.660734,1.487375,-1.370161,1.277607,0.198599,0.979940,-0.016606,0.000000,0.000000,0.000000,-1,-0.089117,-0.007245,0.036279,-0.046820,0.027216,-0.053127
"2018-06-07 01:55:48.671 +0000",1528336548.670807,1.488886,-1.369930,1.279181,0.198849,0.979894,-0.016324,0.000000,0.000000,0.000000,-1,-0.010234,0.002918,0.021069,-0.064740,0.028208,-0.054904
"2018-06-07 01:55:48.681 +0000",1528336548.680880,1.487244,-1.369763,1.277029,0.198986,0.979861,-0.016664,0.000000,0.000000,0.000000,-1,0.062273,0.062448,0.009244,-0.073833,0.025449,-0.040312
"2018-06-07 01:55:48.691 +0000",1528336548.690954,1.483737,-1.369630,1.272207,0.199056,0.979834,-0.017374,0.000000,0.000000,0.000000,-1,0.106356,0.138339,0.003986,-0.066854,0.022790,-0.023627
"2018-06-07 01:55:48.701 +0000",1528336548.701027,1.657868,-1.386134,1.441240,0.182919,0.982998,0.015967,0.000000,0.000000,0.000000,-1,0.127371,0.172451,-0.001341,-0.041913,0.014041,-0.044288
"2018-06-07 01:55:48.711 +0000",1528336548.711100,1.672837,-1.384136,1.454075,0.184613,0.982630,0.018904,0.000000,0.000000,0.000000,-1,0.126334,0.158177,-0.001380,-0.036008,0.010306,-0.033293
"2018-06-07 01:55:48.721 +0000",1528336548.721173,1.631568,-1.381798,1.412055,0.187529,0.982193,0.011410,0.000000,0.000000,0.000000,-1,0.104324,0.118601,-0.002521,-0.029631,0.005768,-0.015149
"2018-06-07 01:55:48.731 +0000",1528336548.731246,1.577262,-1.384048,1.357778,0.185661,0.982613,0.001200,0.000000,0.000000,0.000000,-1,0.070737,0.067997,0.000636,-0.021339,-0.001290,0.004522
"2018-06-07 01:55:48.741 +0000",1528336548.741320,1.522977,-1.388494,1.303877,0.181088,0.983429,-0.008666,0.000000,0.000000,0.000000,-1,0.036101,0.041554,0.000638,-0.011379,-0.006409,0.021895
"2018-06-07 01:55:48.751 +0000",1528336548.751393,1.480506,-1.393945,1.261736,0.175213,0.984403,-0.015863,0.000000,0.000000,0.000000,-1,0.006682,0.033779,0.002834,-0.002300,-0.005353,0.031305
"2018-06-07 01:55:48.761 +0000",1528336548.761466,1.454574,-1.399333,1.235838,0.169473,0.985336,-0.019786,0.000000,0.000000,0.000000,-1,-0.002776,0.038143,0.002869,0.003928,-0.005874,0.026683
"2018-06-07 01:55:48.772 +0000",1528336548.771539,1.441870,-1.403037,1.222815,0.165587,0.985961,-0.021468,0.000000,0.000000,0.000000,-1,0.000320,0.052400,0.008281,0.008180,-0.005340,0.013777
"2018-06-07 01:55:48.782 +0000",1528336548.781612,1.437557,-1.405270,1.217994,0.163311,0.986332,-0.021889,0.000000,0.000000,0.000000,-1,0.011828,0.057899,0.013649,0.008869,-0.002674,-0.002464
"2018-06-07 01:55:48.792 +0000",1528336548.791686,1.440095,-1.406533,1.219924,0.162131,0.986539,-0.021312,0.000000,0.000000,0.000000,-1,0.028597,0.052434,0.018973,0.007455,-0.001111,-0.014378
"2018-06-07 01:55:48.802 +0000",1528336548.801759,1.446334,-1.406917,1.225536,0.161885,0.986602,-0.020253,0.000000,0.000000,0.000000,-1,0.046484,0.045911,0.015686,0.004787,0.000398,-0.017817
"2018-06-07 01:55:48.812 +0000",1528336548.811832,1.455154,-1.406772,1.233712,0.162199,0.986578,-0.018841,0.000000,0.000000,0.000000,-1,0.058047,0.044850,0.014581,0.007646,-0.000357,-0.016880
"2018-06-07 01:55:48.822 +0000",1528336548.821905,1.465152,-1.406277,1.242968,0.162866,0.986497,-0.017270,0.000000,0.000000,0.000000,-1,0.067494,0.051463,0.014579,0.008445,-0.004594,-0.009372
"2018-06-07 01:55:48.832 +0000",1528336548.831978,1.474285,-1.405596,1.251177,0.163685,0.986385,-0.015847,0.000000,0.000000,0.000000,-1,0.075831,0.076712,0.020011,0.006740,-0.009365,0.000252
"2018-06-07 01:55:48.842 +0000",1528336548.842052,1.479682,-1.404849,1.255409,0.164500,0.986262,-0.015030,0.000000,0.000000,0.000000,-1,0.065275,0.105211,0.023345,0.002751,-0.012233,0.007828
"2018-06-07 01:55:48.852 +0000",1528336548.852125,1.480480,-1.404049,1.254958,0.165298,0.986130,-0.014970,0.000000,0.000000,0.000000,-1,0.048459,0.116141,0.023415,-0.001480,-0.004822,0.008286
"2018-06-07 01:55:48.862 +0000",1528336548.862198,1.476593,-1.403332,1.250038,0.165940,0.986011,-0.015678,0.000000,0.000000,0.000000,-1,0.034839,0.097450,0.021241,-0.004990,-0.002933,0.002678
"2018-06-07 01:55:48.872 +0000",1528336548.872271,1.469907,-1.402800,1.242585,0.166354,0.985922,-0.016841,0.000000,0.000000,0.000000,-1,0.028599,0.076598,0.015816,-0.004626,-0.004721,-0.001745
"2018-06-07 01:55:48.882 +0000",1528336548.882344,1.463180,-1.402538,1.235238,0.166495,0.985878,-0.017987,0.000000,0.000000,0.000000,-1,0.025516,0.065644,0.008262,-0.003485,-0.004021,-0.000430
"2018-06-07 01:55:48.892 +0000",1528336548.892418,1.458071,-1.402169,1.229447,0.166763,0.985816,-0.018878,0.000000,0.000000,0.000000,-1,0.019180,0.074394,0.011529,0.001969,0.002755,0.003482
"2018-06-07 01:55:48.902 +0000",1528336548.902491,1.455877,-1.401762,1.226498,0.167120,0.985748,-0.019290,0.000000,0.000000,0.000000,-1,0.019199,0.072208,0.009371,0.010233,-0.004501,0.000705
"2018-06-07 01:55:48.913 +0000",1528336548.912564,1.455871,-1.401496,1.225905,0.167381,0.985703,-0.019322,0.000000,0.000000,0.000000,-1,0.030799,0.050299,0.006054,0.016945,-0.028336,-0.012249
"2018-06-07 01:55:48.923 +0000",1528336548.922637,1.454122,-1.401334,1.223566,0.167505,0.985676,-0.019633,0.000000,0.000000,0.000000,-1,0.044387,0.059087,0.013578,0.016821,-0.028309,-0.011938
"2018-06-07 01:55:48.933 +0000",1528336548.932710,1.458388,-1.401265,1.226962,0.167655,0.985664,-0.018926,0.000000,0.000000,0.000000,-1,0.039043,0.077694,0.023325,0.034158,0.000878,-0.005916
"2018-06-07 01:55:48.943 +0000",1528336548.942784,1.458873,-1.401317,1.226811,0.167613,0.985673,-0.018839,0.000000,0.000000,0.000000,-1,0.021262,0.051325,0.016835,0.035450,-0.009202,-0.012198
"2018-06-07 01:55:48.953 +0000",1528336548.952857,1.458402,-1.401290,1.226007,0.167631,0.985668,-0.018920,0.000000,0.000000,0.000000,-1,0.012859,0.026039,0.020008,0.046282,-0.017559,-0.019410
"2018-06-07 01:55:48.963 +0000",1528336548.962930,1.458312,-1.401127,1.225622,0.167790,0.985641,-0.018954,0.000000,0.000000,0.000000,-1,0.009611,0.032567,0.031866,0.049511,-0.027434,-0.017530
"2018-06-07 01:55:48.973 +0000",1528336548.973003,1.459301,-1.400732,1.226176,0.168195,0.985574,-0.018831,0.000000,0.000000,0.000000,-1,0.006367,0.043491,0.042662,0.045352,-0.021203,-0.014509
"2018-06-07 01:55:48.983 +0000",1528336548.983076,1.459974,-1.400012,1.226347,0.168912,0.985452,-0.018796,0.000000,0.000000,0.000000,-1,0.004282,0.052281,0.039466,0.038104,-0.011300,-0.012316
"2018-06-07 01:55:48.993 +0000",1528336548.993150,1.458504,-1.398926,1.224407,0.169948,0.985267,-0.019164,0.000000,0.000000,0.000000,-1,0.000076,0.048971,0.040541,0.029927,-0.004264,-0.015427
"2018-06-07 01:55:49.003 +0000",1528336549.003223,1.457876,-1.397528,1.223331,0.171305,0.985027,-0.019426,0.000000,0.000000,0.000000,-1,-0.006208,0.046767,0.038398,0.031164,-0.012538,-0.017805
"2018-06-07 01:55:49.013 +0000",1528336549.013296,1.458518,-1.396315,1.223608,0.172505,0.984817,-0.019450,0.000000,0.000000,0.000000,-1,-0.010330,0.033618,0.029764,0.023662,-0.003982,-0.018529
"2018-06-07 01:55:49.023 +0000",1528336549.023369,1.458031,-1.395136,1.222977,0.173648,0.984611,-0.019665,0.000000,0.000000,0.000000,-1,-0.011311,0.012785,0.023252,0.015622,-0.009987,-0.018238
"2018-06-07 01:55:49.033 +0000",1528336549.033443,1.456320,-1.393646,1.221328,0.175071,0.984350,-0.020130,0.000000,0.000000,0.000000,-1,-0.007075,-0.005856,0.021036,0.015023,-0.010763,-0.020321
"2018-06-07 01:55:49.044 +0000",1528336549.043516,1.454457,-1.392186,1.219731,0.176460,0.984092,-0.020622,0.000000,0.000000,0.000000,-1,-0.002763,-0.025553,0.009138,0.012383,-0.004355,-0.019417
"2018-06-07 01:55:49.054 +0000",1528336549.053589,1.452855,-1.391036,1.218414,0.177551,0.983887,-0.021038,0.000000,0.000000,0.000000,-1,-0.000612,-0.026618,0.002676,0.012711,-0.003296,-0.014027
"2018-06-07 01:55:49.064 +0000",1528336549.063662,1.451468,-1.390230,1.217449,0.178309,0.983742,-0.021379,0.000000,0.000000,0.000000,-1,-0.001580,-0.043051,-0.005975,0.014593,-0.008507,-0.010817
"2018-06-07 01:55:49.074 +0000",1528336549.073735,1.449523,-1.389794,1.216166,0.178693,0.983664,-0.021778,0.000000,0.000000,0.000000,-1,-0.005692,-0.067177,-0.014641,0.024401,-0.014548,-0.005246
"2018-06-07 01:55:49.084 +0000",1528336549.083808,1.447662,-1.389069,1.214936,0.179361,0.983533,-0.022198,0.000000,0.000000,0.000000,-1,-0.012224,-0.060730,0.014435,0.049613,-0.028928,0.007748
"2018-06-07 01:55:49.094 +0000",1528336549.093882,1.446790,-1.388241,1.214864,0.180148,0.983383,-0.022455,0.000000,0.000000,0.000000,-1,-0.027188,-0.065307,0.048877,0.041058,-0.012131,0.002313
"2018-06-07 01:55:49.104 +0000",1528336549.103955,1.447071,-1.387673,1.215939,0.180709,0.983280,-0.022473,0.000000,0.000000,0.000000,-1,-0.057460,-0.080666,0.026313,0.009141,-0.011081,0.010083
"2018-06-07 01:55:49.114 +0000",1528336549.114028,1.447683,-1.387217,1.217545,0.181166,0.983197,-0.022417,0.000000,0.000000,0.000000,-1,-0.067927,-0.092757,0.023075,-0.012511,-0.014462,0.010012
"2018-06-07 01:55:49.124 +0000",1528336549.124101,1.447876,-1.386698,1.218807,0.181678,0.983102,-0.022445,0.000000,0.000000,0.000000,-1,-0.050170,-0.092761,0.035942,-0.007880,-0.010232,0.007339
"2018-06-07 01:55:49.134 +0000",1528336549.134175,1.448072,-1.386265,1.220015,0.182104,0.983022,-0.022462,0.000000,0.000000,0.000000,-1,-0.044793,-0.094874,0.019789,-0.019659,0.001627,0.008530
"2018-06-07 01:55:49.144 +0000",1528336549.144248,1.449068,-1.385917,1.221845,0.182466,0.982958,-0.022322,0.000000,0.000000,0.000000,-1,-0.052101,-0.064117,0.010214,-0.034914,0.018217,0.020323
"2018-06-07 01:55:49.154 +0000",1528336549.154321,1.451176,-1.385440,1.224241,0.182976,0.982871,-0.021993,0.000000,0.000000,0.000000,-1,-0.047891,-0.013577,0.002822,-0.043038,0.020318,0.032079
"2018-06-07 01:55:49.164 +0000",1528336549.164394,1.454317,-1.384383,1.227406,0.184078,0.982675,-0.021539,0.000000,0.000000,0.000000,-1,-0.027972,0.000736,0.006045,-0.035565,0.009665,0.017343
"2018-06-07 01:55:49.174 +0000",1528336549.174467,1.455797,-1.383566,1.229026,0.184908,0.982524,-0.021358,0.000000,0.000000,0.000000,-1,-0.015353,-0.014597,0.005972,-0.036608,0.009099,0.003933
"2018-06-07 01:55:49.185 +0000",1528336549.184541,1.457113,-1.383445,1.230418,0.185053,0.982501,-0.021129,0.000000,0.000000,0.000000,-1,-0.004817,-0.005763,0.000595,-0.040323,0.010251,0.004435
"2018-06-07 01:55:49.195 +0000",1528336549.194614,1.458260,-1.383789,1.231516,0.184742,0.982565,-0.020878,0.000000,0.000000,0.000000,-1,-0.006872,0.006338,-0.006895,-0.043583,0.010919,0.007817
"2018-06-07 01:55:49.205 +0000",1528336549.204687,1.459002,-1.384086,1.232150,0.184469,0.982620,-0.020709,0.000000,0.000000,0.000000,-1,-0.001583,0.010766,-0.012272,-0.034887,0.009461,0.009311
"2018-06-07 01:55:49.215 +0000",1528336549.214760,1.459028,-1.384580,1.231970,0.183988,0.982712,-0.020650,0.000000,0.000000,0.000000,-1,0.016220,0.022869,-0.006899,-0.027478,0.004791,0.009938
"2018-06-07 01:55:49.225 +0000",1528336549.224833,1.459491,-1.385360,1.232032,0.183235,0.982856,-0.020480,0.000000,0.000000,0.000000,-1,0.028809,0.038272,-0.006883,-0.020668,0.000268,0.015612
"2018-06-07 01:55:49.235 +0000",1528336549.234907,1.460915,-1.386280,1.232782,0.182365,0.983025,-0.020119,0.000000,0.000000,0.000000,-1,0.032977,0.064626,-0.005741,-0.014976,0.000160,0.021172
"2018-06-07 01:55:49.245 +0000",1528336549.244980,1.461359,-1.386949,1.232350,0.181721,0.983148,-0.019967,0.000000,0.000000,0.000000,-1,0.028745,0.087662,-0.004588,-0.010273,0.002967,0.023003
"2018-06-07 01:55:49.255 +0000",1528336549.255053,1.461047,-1.387558,1.231069,0.181118,0.983259,-0.019958,0.000000,0.000000,0.000000,-1,0.020318,0.095314,-0.002395,-0.008480,0.004351,0.021346
"2018-06-07 01:55:49.265 +0000",1528336549.265126,1.460881,-1.388210,1.229998,0.180477,0.983377,-0.019917,0.000000,0.000000,0.000000,-1,0.018228,0.084331,-0.002423,-0.008876,0.003454,0.019292
"2018-06-07 01:55:49.275 +0000",1528336549.275199,1.460914,-1.388898,1.229169,0.179806,0.983502,-0.019837,0.000000,0.000000,0.000000,-1,0.020324,0.081039,-0.001361,-0.006832,0.002857,0.015687
"2018-06-07 01:55:49.285 +0000",1528336549.285273,1.460942,-1.389444,1.228418,0.179272,0.983601,-0.019773,0.000000,0.000000,0.000000,-1,0.023508,0.072279,-0.004621,-0.004757,0.002590,0.012617
"2018-06-07 01:55:49.295 +0000",1528336549.295346,1.460920,-1.389855,1.227630,0.178870,0.983675,-0.019733,0.000000,0.000000,0.000000,-1,0.025608,0.073383,-0.004623,-0.003165,0.002287,0.013996
"2018-06-07 01:55:49.305 +0000",1528336549.305419,1.461467,-1.390123,1.227267,0.178619,0.983723,-0.019606,0.000000,0.000000,0.000000,-1,0.027668,0.089841,-0.001353,-0.000748,0.000042,0.014449
"2018-06-07 01:55:49.315 +0000",1528336549.315492,1.462602,-1.390348,1.227371,0.178420,0.983763,-0.019380,0.000000,0.000000,0.000000,-1,0.027692,0.098642,-0.005630,-0.001891,-0.000777,0.016069
"2018-06-07 01:55:49.326 +0000",1528336549.325565,1.463804,-1.390551,1.227488,0.178244,0.983800,-0.019144,0.000000,0.000000,0.000000,-1,0.030866,0.100859,-0.008857,-0.001043,-0.002248,0.013040
"2018-06-07 01:55:49.336 +0000",1528336549.335638,1.464556,-1.390737,1.227160,0.178075,0.983833,-0.018990,0.000000,0.000000,0.000000,-1,0.036128,0.098683,-0.009951,0.001643,-0.004661,0.011193
"2018-06-07 01:55:49.346 +0000",1528336549.345712,1.464920,-1.390950,1.226583,0.177873,0.983871,-0.018903,0.000000,0.000000,0.000000,-1,0.034069,0.081127,-0.013225,0.004439,-0.007416,0.010175
"2018-06-07 01:55:49.356 +0000",1528336549.355785,1.464885,-1.391120,1.225864,0.177707,0.983902,-0.018892,0.000000,0.000000,0.000000,-1,0.030917,0.056954,-0.010061,0.009381,-0.006423,0.010271
"2018-06-07 01:55:49.366 +0000",1528336549.365858,1.464777,-1.391277,1.225333,0.177552,0.983930,-0.018895,0.000000,0.000000,0.000000,-1,0.021505,0.031688,-0.012264,0.015395,-0.004971,0.009266
"2018-06-07 01:55:49.376 +0000",1528336549.375931,1.464996,-1.391429,1.225315,0.177408,0.983957,-0.018840,0.000000,0.000000,0.000000,-1,0.016268,0.016305,-0.012297,0.020590,-0.004205,0.008037
"2018-06-07 01:55:49.386 +0000",1528336549.386004,1.465454,-1.391526,1.225590,0.177322,0.983974,-0.018749,0.000000,0.000000,0.000000,-1,0.013085,0.015180,-0.007990,0.022538,-0.006389,0.004284
"2018-06-07 01:55:49.396 +0000",1528336549.396078,1.465977,-1.391601,1.225882,0.177258,0.983987,-0.018648,0.000000,0.000000,0.000000,-1,0.016198,0.019562,-0.003682,0.022830,-0.008035,0.003008
"2018-06-07 01:55:49.406 +0000",1528336549.406151,1.466168,-1.391654,1.225828,0.177209,0.983997,-0.018609,0.000000,0.000000,0.000000,-1,0.018315,0.020675,-0.005835,0.023109,-0.007862,-0.001304
"2018-06-07 01:55:49.416 +0000",1528336549.416224,1.465895,-1.391650,1.225396,0.177208,0.983996,-0.018658,0.000000,0.000000,0.000000,-1,0.022519,0.008606,-0.004804,0.024041,-0.007434,-0.003406
"2018-06-07 01:55:49.426 +0000",1528336549.426297,1.465268,-1.391563,1.224724,0.177281,0.983981,-0.018778,0.000000,0.000000,0.000000,-1,0.027741,-0.002379,0.000530,0.025142,-0.007357,-0.004797
"2018-06-07 01:55:49.436 +0000",1528336549.436371,1.464408,-1.391421,1.223943,0.177404,0.983955,-0.018945,0.000000,0.000000,0.000000,-1,0.027778,-0.015539,-0.002735,0.026057,-0.002434,-0.005133
"2018-06-07 01:55:49.446 +0000",1528336549.446444,1.463466,-1.391190,1.223231,0.177612,0.983914,-0.019137,0.000000,0.000000,0.000000,-1,0.025673,-0.027629,-0.000614,0.022736,0.002582,-0.006559
"2018-06-07 01:55:49.457 +0000",1528336549.456517,1.462527,-1.390861,1.222592,0.177917,0.983855,-0.019339,0.000000,0.000000,0.000000,-1,0.025639,-0.035336,0.004742,0.017945,0.002595,-0.010553
"2018-06-07 01:55:49.467 +0000",1528336549.466590,1.461055,-1.390490,1.221491,0.178252,0.983789,-0.019641,0.000000,0.000000,0.000000,-1,0.029837,-0.040817,0.005792,0.012666,-0.000039,-0.015073
"2018-06-07 01:55:49.477 +0000",1528336549.476663,1.458779,-1.390101,1.219485,0.178588,0.983719,-0.020089,0.000000,0.000000,0.000000,-1,0.048714,-0.027601,0.007938,0.008714,-0.000076,-0.017738
"2018-06-07 01:55:49.487 +0000",1528336549.486737,1.455492,-1.389637,1.216302,0.178974,0.983635,-0.020728,0.000000,0.000000,0.000000,-1,0.065473,-0.013301,0.012244,0.005947,-0.000313,-0.016259
"2018-06-07 01:55:49.497 +0000",1528336549.496809,1.451519,-1.389105,1.212434,0.179410,0.983540,-0.021502,0.000000,0.000000,0.000000,-1,0.074891,-0.019884,0.017582,0.003375,0.000897,-0.015074
"2018-06-07 01:55:49.507 +0000",1528336549.506883,1.447225,-1.388506,1.208327,0.179901,0.983431,-0.022344,0.000000,0.000000,0.000000,-1,0.078016,-0.026480,0.021858,0.002533,0.000654,-0.012018
"2018-06-07 01:55:49.517 +0000",1528336549.516956,1.442921,-1.387929,1.204229,0.180366,0.983326,-0.023191,0.000000,0.000000,0.000000,-1,0.079085,-0.028663,0.019698,0.003243,-0.001332,-0.006259
"2018-06-07 01:55:49.527 +0000",1528336549.527029,1.438858,-1.387407,1.200430,0.180779,0.983231,-0.023991,0.000000,0.000000,0.000000,-1,0.070688,-0.035273,0.019698,0.005378,-0.003678,-0.003719
"2018-06-07 01:55:49.537 +0000",1528336549.537102,1.434922,-1.386935,1.196869,0.181142,0.983145,-0.024765,0.000000,0.000000,0.000000,-1,0.060187,-0.046284,0.020766,0.006709,-0.004263,-0.003265
"2018-06-07 01:55:49.547 +0000",1528336549.547175,1.431220,-1.386534,1.193747,0.181440,0.983072,-0.025490,0.000000,0.000000,0.000000,-1,0.047600,-0.063884,0.020743,0.006335,-0.003274,-0.002372
"2018-06-07 01:55:49.557 +0000",1528336549.557249,1.427794,-1.386161,1.191087,0.181715,0.983003,-0.026164,0.000000,0.000000,0.000000,-1,0.036038,-0.081494,0.023945,0.006075,-0.002397,-0.002995
"2018-06-07 01:55:49.567 +0000",1528336549.567322,1.424853,-1.385815,1.189008,0.181973,0.982940,-0.026748,0.000000,0.000000,0.000000,-1,0.028683,-0.087007,0.025022,0.002979,-0.001388,-0.004899
"2018-06-07 01:55:49.577 +0000",1528336549.577394,1.422160,-1.385460,1.187135,0.182246,0.982874,-0.027290,0.000000,0.000000,0.000000,-1,0.029686,-0.080441,0.030417,0.000127,-0.003825,-0.005196
"2018-06-07 01:55:49.587 +0000",1528336549.587468,1.419667,-1.385086,1.185369,0.182541,0.982805,-0.027799,0.000000,0.000000,0.000000,-1,0.030710,-0.070567,0.032595,-0.003769,-0.009401,-0.006167
"2018-06-07 01:55:49.598 +0000",1528336549.597542,1.417632,-1.384679,1.183928,0.182879,0.982730,-0.028232,0.000000,0.000000,0.000000,-1,0.031723,-0.057404,0.035857,-0.006030,-0.013629,-0.004132
"2018-06-07 01:55:49.608 +0000",1528336549.607615,1.415665,-1.384170,1.182417,0.183318,0.982636,-0.028669,0.000000,0.000000,0.000000,-1,0.036903,-0.043151,0.043417,-0.009230,-0.012360,-0.003085
"2018-06-07 01:55:49.618 +0000",1528336549.617688,1.413597,-1.383629,1.180718,0.183783,0.982535,-0.029131,0.000000,0.000000,0.000000,-1,0.040043,-0.039853,0.044495,-0.012686,-0.006003,0.001528
"2018-06-07 01:55:49.628 +0000",1528336549.627760,1.411895,-1.383132,1.179486,0.184215,0.982443,-0.029521,0.000000,0.000000,0.000000,-1,0.028526,-0.053045,0.041256,-0.016063,0.001414,0.004893
"2018-06-07 01:55:49.638 +0000",1528336549.637834,1.410952,-1.382717,1.179192,0.184589,0.982365,-0.029759,0.000000,0.000000,0.000000,-1,0.008633,-0.067344,0.034806,-0.017749,0.003475,0.005452
"2018-06-07 01:55:49.648 +0000",1528336549.647908,1.410672,-1.382395,1.179697,0.184892,0.982305,-0.029862,0.000000,0.000000,0.000000,-1,-0.009187,-0.079456,0.031584,-0.020525,0.001277,-0.001068
"2018-06-07 01:55:49.658 +0000",1528336549.657980,1.410802,-1.382123,1.180657,0.185161,0.982254,-0.029880,0.000000,0.000000,0.000000,-1,-0.016546,-0.080579,0.032674,-0.021297,0.001038,-0.011502
"2018-06-07 01:55:49.668 +0000",1528336549.668054,1.411037,-1.381831,1.181659,0.185451,0.982199,-0.029882,0.000000,0.000000,0.000000,-1,-0.017639,-0.070720,0.037007,-0.020229,0.002252,-0.019358
"2018-06-07 01:55:49.678 +0000",1528336549.678127,1.411195,-1.381508,1.182457,0.185768,0.982138,-0.029903,0.000000,0.000000,0.000000,-1,-0.010323,-0.058638,0.040253,-0.020348,0.004724,-0.021671
"2018-06-07 01:55:49.688 +0000",1528336549.688200,1.410889,-1.381168,1.182658,0.186090,0.982074,-0.030013,0.000000,0.000000,0.000000,-1,0.003303,-0.046533,0.042408,-0.019357,0.004254,-0.019242
"2018-06-07 01:55:49.698 +0000",1528336549.698274,1.410500,-1.380853,1.182649,0.186383,0.982015,-0.030135,0.000000,0.000000,0.000000,-1,0.008535,-0.034448,0.043507,-0.020245,0.006175,-0.014848
"2018-06-07 01:55:49.708 +0000",1528336549.708347,1.409822,-1.380619,1.182261,0.186589,0.981971,-0.030298,0.000000,0.000000,0.000000,-1,0.018026,-0.031106,0.038117,-0.020375,0.011590,-0.013479
"2018-06-07 01:55:49.718 +0000",1528336549.718420,1.408820,-1.380426,1.181610,0.186745,0.981934,-0.030516,0.000000,0.000000,0.000000,-1,0.022253,-0.039867,0.035930,-0.021935,0.016006,-0.022341
"2018-06-07 01:55:49.728 +0000",1528336549.728493,1.406961,-1.380269,1.180234,0.186841,0.981905,-0.030888,0.000000,0.000000,0.000000,-1,0.031732,-0.049711,0.033728,-0.020765,0.015364,-0.030468
"2018-06-07 01:55:49.739 +0000",1528336549.738565,1.403872,-1.380063,1.177612,0.186944,0.981865,-0.031499,0.000000,0.000000,0.000000,-1,0.046441,-0.045275,0.032632,-0.017541,0.009605,-0.027477
"2018-06-07 01:55:49.749 +0000",1528336549.748640,1.399652,-1.379794,1.173686,0.187070,0.981815,-0.032332,0.000000,0.000000,0.000000,-1,0.067416,-0.029856,0.034780,-0.014187,0.000485,-0.022722
"2018-06-07 01:55:49.759 +0000",1528336549.758713,1.394592,-1.379467,1.168726,0.187220,0.981752,-0.033335,0.000000,0.000000,0.000000,-1,0.084195,-0.010055,0.035875,-0.010600,-0.005907,-0.018316
"2018-06-07 01:55:49.769 +0000",1528336549.768785,1.389269,-1.379103,1.163418,0.187391,0.981683,-0.034395,0.000000,0.000000,0.000000,-1,0.093638,-0.008935,0.036932,-0.010008,-0.003320,-0.014265
"2018-06-07 01:55:49.779 +0000",1528336549.778859,1.384420,-1.378788,1.158650,0.187525,0.981623,-0.035361,0.000000,0.000000,0.000000,-1,0.082124,-0.015536,0.032637,-0.008906,0.001669,-0.011865
"2018-06-07 01:55:49.789 +0000",1528336549.788932,1.379872,-1.378541,1.154281,0.187601,0.981576,-0.036259,0.000000,0.000000,0.000000,-1,0.077954,-0.022120,0.029400,-0.006998,0.000678,-0.008785
"2018-06-07 01:55:49.799 +0000",1528336549.799006,1.375025,-1.378293,1.149554,0.187663,0.981528,-0.037216,0.000000,0.000000,0.000000,-1,0.080049,-0.016626,0.029412,-0.003093,-0.010398,0.000488
"2018-06-07 01:55:49.809 +0000",1528336549.809079,1.369755,-1.377998,1.144430,0.187747,0.981472,-0.038262,0.000000,0.000000,0.000000,-1,0.082137,-0.021020,0.031545,0.003385,-0.024013,0.006569
"2018-06-07 01:55:49.819 +0000",1528336549.819151,1.364800,-1.377647,1.139671,0.187893,0.981405,-0.039262,0.000000,0.000000,0.000000,-1,0.076866,-0.026537,0.034768,0.006565,-0.030187,0.010652
"2018-06-07 01:55:49.829 +0000",1528336549.829225,1.360848,-1.377266,1.135948,0.188101,0.981331,-0.040082,0.000000,0.000000,0.000000,-1,0.061111,-0.026581,0.034804,0.006997,-0.029610,0.016782
"2018-06-07 01:55:49.839 +0000",1528336549.839298,1.358230,-1.376917,1.133531,0.188332,0.981264,-0.040647,0.000000,0.000000,0.000000,-1,0.038015,-0.021147,0.032722,0.003929,-0.025209,0.023115
"2018-06-07 01:55:49.849 +0000",1528336549.849371,1.357128,-1.376683,1.132552,0.188510,0.981219,-0.040903,0.000000,0.000000,0.000000,-1,0.010753,-0.010214,0.025286,0.001249,-0.018878,0.029413
"2018-06-07 01:55:49.859 +0000",1528336549.859445,1.357501,-1.376572,1.132950,0.188632,0.981198,-0.040856,0.000000,0.000000,0.000000,-1,-0.016527,0.001807,0.020005,-0.000613,-0.013592,0.030220
"2018-06-07 01:55:49.870 +0000",1528336549.869518,1.359208,-1.376512,1.134665,0.188759,0.981186,-0.040546,0.000000,0.000000,0.000000,-1,-0.038585,0.002844,0.020059,-0.001884,-0.013046,0.024692
"2018-06-07 01:55:49.880 +0000",1528336549.879591,1.362021,-1.376482,1.137538,0.188901,0.981180,-0.040021,0.000000,0.000000,0.000000,-1,-0.054303,-0.001573,0.015780,-0.003171,-0.009607,0.017194
"2018-06-07 01:55:49.890 +0000",1528336549.889664,1.365404,-1.376438,1.140972,0.189077,0.981172,-0.039390,0.000000,0.000000,0.000000,-1,-0.058467,0.001731,0.010421,-0.003805,-0.006440,0.011787
"2018-06-07 01:55:49.900 +0000",1528336549.899738,1.368994,-1.376411,1.144601,0.189244,0.981167,-0.038717,0.000000,0.000000,0.000000,-1,-0.060550,0.000636,0.008271,-0.003834,-0.008465,0.003622
"2018-06-07 01:55:49.910 +0000",1528336549.909811,1.372628,-1.376393,1.148285,0.189401,0.981163,-0.038032,0.000000,0.000000,0.000000,-1,-0.057398,-0.000453,0.008260,-0.005593,-0.006554,-0.007363
"2018-06-07 01:55:49.920 +0000",1528336549.919884,1.376212,-1.376417,1.151907,0.189513,0.981168,-0.037349,0.000000,0.000000,0.000000,-1,-0.051075,0.003970,0.005032,-0.008192,-0.002805,-0.017873
"2018-06-07 01:55:49.930 +0000",1528336549.929956,1.379363,-1.376485,1.154949,0.189564,0.981181,-0.036739,0.000000,0.000000,0.000000,-1,-0.035307,0.016102,0.001804,-0.010792,0.000783,-0.019261
"2018-06-07 01:55:49.940 +0000",1528336549.940030,1.381794,-1.376576,1.157195,0.189565,0.981198,-0.036261,0.000000,0.000000,0.000000,-1,-0.020573,0.020553,-0.002519,-0.009252,0.002505,-0.019891
"2018-06-07 01:55:49.950 +0000",1528336549.950104,1.383147,-1.376652,1.158345,0.189540,0.981213,-0.035991,0.000000,0.000000,0.000000,-1,-0.003759,0.020604,-0.003633,-0.007671,0.004169,-0.021627
"2018-06-07 01:55:49.960 +0000",1528336549.960176,1.383173,-1.376700,1.158198,0.189495,0.981222,-0.035977,0.000000,0.000000,0.000000,-1,0.015153,0.014070,-0.003696,-0.002270,0.005869,-0.022846
"2018-06-07 01:55:49.970 +0000",1528336549.970250,1.382612,-1.376711,1.157577,0.189464,0.981224,-0.036081,0.000000,0.000000,0.000000,-1,0.017250,0.000894,-0.001587,0.005528,0.006279,-0.021597
"2018-06-07 01:55:49.980 +0000",1528336549.980323,1.381662,-1.376687,1.156576,0.189452,0.981220,-0.036265,0.000000,0.000000,0.000000,-1,0.021433,0.003092,0.000561,0.010942,0.003308,-0.015538
"2018-06-07 01:55:49.990 +0000",1528336549.990396,1.380172,-1.376640,1.155001,0.189443,0.981211,-0.036556,0.000000,0.000000,0.000000,-1,0.025612,0.009681,0.002722,0.019022,-0.003763,-0.009342
"2018-06-07 01:55:50.000 +0000",1528336550.000470,1.378237,-1.376558,1.152927,0.189451,0.981195,-0.036938,0.000000,0.000000,0.000000,-1,0.025566,0.014050,0.008113,0.023043,-0.009866,-0.006061
"2018-06-07 01:55:50.011 +0000",1528336550.010543,1.376600,-1.376456,1.151128,0.189489,0.981175,-0.037268,0.000000,0.000000,0.000000,-1,0.020286,0.017315,0.011361,0.022761,-0.010258,-0.003824
"2018-06-07 01:55:50.021 +0000",1528336550.020616,1.375314,-1.376337,1.149613,0.189555,0.981152,-0.037534,0.000000,0.000000,0.000000,-1,0.015018,0.026078,0.012474,0.020772,-0.010449,0.002744
"2018-06-07 01:55:50.031 +0000",1528336550.030689,1.374199,-1.376232,1.148133,0.189615,0.981132,-0.037766,0.000000,0.000000,0.000000,-1,0.015014,0.038157,0.011434,0.016715,-0.014884,0.011917
"2018-06-07 01:55:50.041 +0000",1528336550.040761,1.373423,-1.376069,1.146992,0.189743,0.981100,-0.037944,0.000000,0.000000,0.000000,-1,0.007639,0.035928,0.014671,0.009324,-0.018591,0.012920
"2018-06-07 01:55:50.051 +0000",1528336550.050836,1.373271,-1.375881,1.146517,0.189917,0.981064,-0.038009,0.000000,0.000000,0.000000,-1,-0.003895,0.033712,0.012543,0.000131,-0.014130,0.013778
"2018-06-07 01:55:50.061 +0000",1528336550.060909,1.374070,-1.375731,1.146946,0.190093,0.981035,-0.037886,0.000000,0.000000,0.000000,-1,-0.019618,0.042473,0.007227,-0.005141,-0.008501,0.016524
"2018-06-07 01:55:50.071 +0000",1528336550.070982,1.375751,-1.375583,1.148235,0.190297,0.981006,-0.037595,0.000000,0.000000,0.000000,-1,-0.029062,0.041354,0.006169,-0.008062,-0.005283,0.011166
"2018-06-07 01:55:50.081 +0000",1528336550.081055,1.377777,-1.375454,1.149924,0.190497,0.980981,-0.037233,0.000000,0.000000,0.000000,-1,-0.034282,0.034766,0.002935,-0.007956,-0.004968,0.002611
"2018-06-07 01:55:50.091 +0000",1528336550.091128,1.379658,-1.375392,1.151681,0.190627,0.980969,-0.036886,0.000000,0.000000,0.000000,-1,-0.036293,0.010646,-0.005736,-0.003524,-0.005048,-0.007349
"2018-06-07 01:55:50.101 +0000",1528336550.101201,1.381503,-1.375369,1.153478,0.190717,0.980965,-0.036539,0.000000,0.000000,0.000000,-1,-0.032078,0.005173,-0.006837,0.005008,-0.004219,-0.012564
"2018-06-07 01:55:50.111 +0000",1528336550.111275,1.383398,-1.375364,1.155293,0.190791,0.980964,-0.036178,0.000000,0.000000,0.000000,-1,-0.026824,0.010681,-0.007908,0.012517,-0.003669,-0.015656
"2018-06-07 01:55:50.121 +0000",1528336550.121347,1.384959,-1.375358,1.156707,0.190853,0.980963,-0.035882,0.000000,0.000000,0.000000,-1,-0.017435,0.017262,-0.000381,0.018925,-0.003836,-0.017860
"2018-06-07 01:55:50.131 +0000",1528336550.131421,1.386305,-1.375357,1.157835,0.190902,0.980962,-0.035625,0.000000,0.000000,0.000000,-1,-0.011179,0.022746,0.004999,0.021302,-0.004629,-0.019246
"2018-06-07 01:55:50.141 +0000",1528336550.141494,1.387497,-1.375349,1.158794,0.190952,0.980961,-0.035399,0.000000,0.000000,0.000000,-1,-0.006985,0.021656,0.006061,0.019604,-0.006214,-0.017931
"2018-06-07 01:55:50.152 +0000",1528336550.151567,1.388308,-1.375360,1.159489,0.190970,0.980963,-0.035242,0.000000,0.000000,0.000000,-1,-0.009090,0.008468,0.008179,0.011255,-0.007849,-0.009588
"2018-06-07 01:55:50.162 +0000",1528336550.161641,1.388802,-1.375397,1.160031,0.190952,0.980970,-0.035141,0.000000,0.000000,0.000000,-1,-0.012192,-0.007989,0.003836,0.005841,-0.008100,-0.002564
"2018-06-07 01:55:50.172 +0000",1528336550.171714,1.389082,-1.375383,1.160501,0.190975,0.980968,-0.035090,0.000000,0.000000,0.000000,-1,-0.017438,-0.022279,0.004882,0.004764,-0.006816,0.001506
"2018-06-07 01:55:50.182 +0000",1528336550.181787,1.389506,-1.375309,1.161191,0.191062,0.980953,-0.035022,0.000000,0.000000,0.000000,-1,-0.022698,-0.022299,0.005970,0.004891,-0.004223,0.006153
"2018-06-07 01:55:50.192 +0000",1528336550.191860,1.390627,-1.375173,1.162482,0.191232,0.980927,-0.034832,0.000000,0.000000,0.000000,-1,-0.035339,-0.009174,0.009264,0.002570,-0.001053,0.013424
"2018-06-07 01:55:50.202 +0000",1528336550.201932,1.392410,-1.375004,1.164313,0.191457,0.980894,-0.034520,0.000000,0.000000,0.000000,-1,-0.044820,0.001768,0.011468,-0.001440,0.000750,0.010488
"2018-06-07 01:55:50.212 +0000",1528336550.212007,1.394081,-1.374827,1.165907,0.191685,0.980859,-0.034231,0.000000,0.000000,0.000000,-1,-0.037454,0.013877,0.008260,-0.008092,0.003439,0.001287
"2018-06-07 01:55:50.222 +0000",1528336550.222080,1.395041,-1.374666,1.166865,0.191873,0.980828,-0.034074,0.000000,0.000000,0.000000,-1,-0.023759,-0.002537,0.004954,-0.013421,0.002845,-0.005370
"2018-06-07 01:55:50.232 +0000",1528336550.232152,1.395358,-1.374564,1.167418,0.191983,0.980808,-0.034031,0.000000,0.000000,0.000000,-1,-0.012176,-0.024456,0.003788,-0.014065,0.001660,-0.011547
"2018-06-07 01:55:50.242 +0000",1528336550.242226,1.395441,-1.374523,1.167627,0.192024,0.980800,-0.034022,0.000000,0.000000,0.000000,-1,-0.002716,-0.005754,0.000594,-0.011650,0.001271,-0.003789
"2018-06-07 01:55:50.252 +0000",1528336550.252299,1.395521,-1.374492,1.167529,0.192057,0.980794,-0.034012,0.000000,0.000000,0.000000,-1,0.004607,0.025004,0.000666,-0.007685,0.000621,0.002426
"2018-06-07 01:55:50.262 +0000",1528336550.262372,1.395718,-1.374421,1.167325,0.192133,0.980780,-0.033986,0.000000,0.000000,0.000000,-1,0.009819,0.040373,0.003926,-0.002268,0.000558,0.001332
"2018-06-07 01:55:50.272 +0000",1528336550.272446,1.396189,-1.374332,1.167353,0.192235,0.980763,-0.033911,0.000000,0.000000,0.000000,-1,0.008727,0.040348,0.009307,-0.000004,-0.000248,-0.001779
"2018-06-07 01:55:50.283 +0000",1528336550.282519,1.396339,-1.374261,1.167113,0.192308,0.980749,-0.033894,0.000000,0.000000,0.000000,-1,0.012960,0.033787,0.006051,-0.001131,-0.001257,-0.000148
"2018-06-07 01:55:50.293 +0000",1528336550.292592,1.396044,-1.374245,1.166567,0.192314,0.980746,-0.033954,0.000000,0.000000,0.000000,-1,0.009832,0.018414,0.004938,0.001671,-0.001940,-0.001447
"2018-06-07 01:55:50.303 +0000",1528336550.302665,1.395497,-1.374276,1.165881,0.192265,0.980752,-0.034053,0.000000,0.000000,0.000000,-1,0.007762,0.011835,0.001697,0.005047,-0.001168,-0.000767
"2018-06-07 01:55:50.313 +0000",1528336550.312738,1.394698,-1.374318,1.164995,0.192196,0.980760,-0.034200,0.000000,0.000000,0.000000,-1,0.008825,0.007451,0.000606,0.008594,-0.002580,0.001378
"2018-06-07 01:55:50.323 +0000",1528336550.322812,1.394400,-1.374314,1.164650,0.192191,0.980759,-0.034258,0.000000,0.000000,0.000000,-1,0.003528,0.003018,0.007059,0.013086,-0.006257,-0.001097
"2018-06-07 01:55:50.333 +0000",1528336550.332885,1.394592,-1.374269,1.164813,0.192241,0.980751,-0.034229,0.000000,0.000000,0.000000,-1,-0.002789,0.001894,0.009221,0.011464,-0.007545,-0.004208
"2018-06-07 01:55:50.343 +0000",1528336550.342957,1.394885,-1.374244,1.165086,0.192276,0.980746,-0.034177,0.000000,0.000000,0.000000,-1,-0.003804,-0.000286,0.004915,0.007904,-0.008547,-0.002978
"2018-06-07 01:55:50.353 +0000",1528336550.353031,1.394958,-1.374245,1.165289,0.192277,0.980746,-0.034163,0.000000,0.000000,0.000000,-1,-0.005854,-0.018936,0.000563,0.007918,-0.010043,-0.001314
"2018-06-07 01:55:50.363 +0000",1528336550.363104,1.395009,-1.374274,1.165653,0.192251,0.980751,-0.034148,0.000000,0.000000,0.000000,-1,-0.007908,-0.033194,-0.003777,0.007624,-0.008477,0.000044
"2018-06-07 01:55:50.373 +0000",1528336550.373178,1.394936,-1.374304,1.165944,0.192219,0.980757,-0.034157,0.000000,0.000000,0.000000,-1,-0.006858,-0.033191,-0.003779,0.009227,-0.006682,0.001091
"2018-06-07 01:55:50.383 +0000",1528336550.383251,1.394979,-1.374287,1.166216,0.192237,0.980754,-0.034151,0.000000,0.000000,0.000000,-1,-0.004812,-0.018937,0.001636,0.009255,-0.004222,0.005785
"2018-06-07 01:55:50.393 +0000",1528336550.393323,1.395351,-1.374200,1.166668,0.192334,0.980737,-0.034095,0.000000,0.000000,0.000000,-1,-0.008026,-0.004703,0.008138,0.007541,-0.004236,0.011527
"2018-06-07 01:55:50.403 +0000",1528336550.403397,1.395920,-1.374026,1.167228,0.192522,0.980703,-0.034015,0.000000,0.000000,0.000000,-1,-0.010143,0.002971,0.009241,0.003706,-0.003378,0.012332
"2018-06-07 01:55:50.413 +0000",1528336550.413470,1.396580,-1.373884,1.167851,0.192681,0.980675,-0.033912,0.000000,0.000000,0.000000,-1,-0.013278,0.004069,0.007100,-0.008217,-0.002434,0.016563
"2018-06-07 01:55:50.424 +0000",1528336550.423543,1.397283,-1.373791,1.168629,0.192794,0.980657,-0.033792,0.000000,0.000000,0.000000,-1,-0.015366,-0.009110,0.007067,-0.011474,0.000636,0.011972
"2018-06-07 01:55:50.434 +0000",1528336550.433617,1.397884,-1.373719,1.169405,0.192884,0.980643,-0.033688,0.000000,0.000000,0.000000,-1,-0.016383,-0.017881,0.003817,-0.011106,0.002465,0.005719
"2018-06-07 01:55:50.444 +0000",1528336550.443690,1.398664,-1.373685,1.170349,0.192944,0.980636,-0.033544,0.000000,0.000000,0.000000,-1,-0.018465,-0.012384,0.000610,-0.011227,0.004273,0.001973
"2018-06-07 01:55:50.454 +0000",1528336550.453763,1.399463,-1.373671,1.171136,0.192984,0.980634,-0.033392,0.000000,0.000000,0.000000,-1,-0.012177,0.010691,-0.000412,-0.012991,0.005984,-0.003687
"2018-06-07 01:55:50.464 +0000",1528336550.463836,1.399772,-1.373664,1.171204,0.193001,0.980632,-0.033334,0.000000,0.000000,0.000000,-1,0.004646,0.027222,-0.004705,-0.010491,0.007603,-0.004112
"2018-06-07 01:55:50.474 +0000",1528336550.473910,1.399231,-1.373619,1.170376,0.193026,0.980624,-0.033445,0.000000,0.000000,0.000000,-1,0.027732,0.023979,-0.001541,-0.003100,0.004743,-0.004808
"2018-06-07 01:55:50.484 +0000",1528336550.483983,1.397894,-1.373547,1.168865,0.193052,0.980609,-0.033716,0.000000,0.000000,0.000000,-1,0.037191,0.009730,-0.000528,0.003711,-0.001392,-0.000830
"2018-06-07 01:55:50.494 +0000",1528336550.494056,1.396321,-1.373538,1.167127,0.193007,0.980608,-0.034021,0.000000,0.000000,0.000000,-1,0.041388,0.014133,-0.000525,0.006532,-0.007005,0.011575
"2018-06-07 01:55:50.504 +0000",1528336550.504129,1.395195,-1.373571,1.165727,0.192937,0.980614,-0.034232,0.000000,0.000000,0.000000,-1,0.029815,0.025074,0.000609,0.008937,-0.011772,0.018455
"2018-06-07 01:55:50.514 +0000",1528336550.514202,1.394687,-1.373599,1.164902,0.192891,0.980620,-0.034326,0.000000,0.000000,0.000000,-1,0.016154,0.031622,0.000659,0.008860,-0.011564,0.016045
"2018-06-07 01:55:50.524 +0000",1528336550.524276,1.394558,-1.373664,1.164439,0.192825,0.980632,-0.034339,0.000000,0.000000,0.000000,-1,0.007769,0.030510,-0.001476,0.008393,-0.009654,0.014457
"2018-06-07 01:55:50.534 +0000",1528336550.534349,1.394671,-1.373737,1.164280,0.192757,0.980647,-0.034305,0.000000,0.000000,0.000000,-1,-0.001688,0.026088,-0.000392,0.008552,-0.008814,0.013248
"2018-06-07 01:55:50.544 +0000",1528336550.544422,1.394969,-1.373793,1.164406,0.192714,0.980657,-0.034238,0.000000,0.000000,0.000000,-1,-0.006936,0.013994,0.000661,0.008396,-0.006552,0.011716
"2018-06-07 01:55:50.554 +0000",1528336550.554495,1.395603,-1.373822,1.165020,0.192708,0.980663,-0.034111,0.000000,0.000000,0.000000,-1,-0.015318,0.000802,-0.000434,0.007182,-0.003414,0.004280
"2018-06-07 01:55:50.565 +0000",1528336550.564568,1.396182,-1.373831,1.165659,0.192719,0.980665,-0.033998,0.000000,0.000000,0.000000,-1,-0.011109,-0.006871,-0.000466,0.007461,-0.002683,-0.000853
"2018-06-07 01:55:50.575 +0000",1528336550.574641,1.396671,-1.373845,1.166231,0.192722,0.980668,-0.033901,0.000000,0.000000,0.000000,-1,-0.002680,-0.009029,-0.003719,0.009960,-0.002060,-0.009022
"2018-06-07 01:55:50.585 +0000",1528336550.584715,1.396940,-1.373794,1.166544,0.192780,0.980658,-0.033858,0.000000,0.000000,0.000000,-1,0.005692,-0.002433,-0.000492,0.010711,-0.001684,-0.011507
"2018-06-07 01:55:50.595 +0000",1528336550.594788,1.396898,-1.373712,1.166379,0.192858,0.980642,-0.033880,0.000000,0.000000,0.000000,-1,0.014055,0.012946,0.002761,0.008375,-0.001439,-0.008753
"2018-06-07 01:55:50.605 +0000",1528336550.604861,1.396609,-1.373568,1.165844,0.192987,0.980613,-0.033960,0.000000,0.000000,0.000000,-1,0.021372,0.023930,0.006003,0.004828,-0.002510,-0.006247
"2018-06-07 01:55:50.615 +0000",1528336550.614934,1.395984,-1.373400,1.164918,0.193128,0.980581,-0.034109,0.000000,0.000000,0.000000,-1,0.028712,0.028337,0.007075,-0.001874,-0.004049,-0.002680
"2018-06-07 01:55:50.625 +0000",1528336550.625007,1.395157,-1.373248,1.163809,0.193247,0.980551,-0.034295,0.000000,0.000000,0.000000,-1,0.029774,0.025051,0.005987,-0.010416,-0.003927,0.002786
"2018-06-07 01:55:50.635 +0000",1528336550.635081,1.394347,-1.373142,1.162686,0.193321,0.980530,-0.034470,0.000000,0.000000,0.000000,-1,0.023501,0.029443,0.001712,-0.017738,-0.002960,0.006256
"2018-06-07 01:55:50.645 +0000",1528336550.645154,1.393697,-1.373086,1.161720,0.193352,0.980519,-0.034605,0.000000,0.000000,0.000000,-1,0.019332,0.029449,-0.002581,-0.023324,-0.002095,0.009169
"2018-06-07 01:55:50.655 +0000",1528336550.655227,1.393336,-1.373041,1.160971,0.193383,0.980510,-0.034683,0.000000,0.000000,0.000000,-1,0.009885,0.040410,-0.004679,-0.024422,-0.003688,0.008087
"2018-06-07 01:55:50.665 +0000",1528336550.665300,1.393318,-1.373034,1.160457,0.193389,0.980509,-0.034687,0.000000,0.000000,0.000000,-1,0.002546,0.052478,-0.007854,-0.024703,-0.003794,0.005818
"2018-06-07 01:55:50.675 +0000",1528336550.675373,1.393621,-1.373057,1.160126,0.193378,0.980513,-0.034625,0.000000,0.000000,0.000000,-1,0.001491,0.065653,-0.008889,-0.024662,-0.003722,0.001193
"2018-06-07 01:55:50.685 +0000",1528336550.685447,1.394087,-1.373137,1.159909,0.193317,0.980529,-0.034521,0.000000,0.000000,0.000000,-1,0.000456,0.066756,-0.011035,-0.021213,-0.002654,-0.002405
"2018-06-07 01:55:50.696 +0000",1528336550.695520,1.394543,-1.373250,1.159719,0.193224,0.980551,-0.034414,0.000000,0.000000,0.000000,-1,0.000460,0.062365,-0.011048,-0.014162,-0.001211,-0.007991
"2018-06-07 01:55:50.706 +0000",1528336550.705593,1.394899,-1.373418,1.159474,0.193073,0.980584,-0.034316,0.000000,0.000000,0.000000,-1,0.005730,0.060194,-0.013217,-0.007282,0.003196,-0.010209
"2018-06-07 01:55:50.716 +0000",1528336550.715666,1.395416,-1.373617,1.159369,0.192899,0.980623,-0.034182,0.000000,0.000000,0.000000,-1,0.002571,0.060180,-0.012134,-0.000226,0.005812,-0.010893
"2018-06-07 01:55:50.726 +0000",1528336550.725739,1.395731,-1.373816,1.159113,0.192718,0.980662,-0.034087,0.000000,0.000000,0.000000,-1,0.006746,0.053587,-0.007861,0.008118,0.002584,-0.012742
"2018-06-07 01:55:50.736 +0000",1528336550.735813,1.396034,-1.373945,1.158834,0.192603,0.980687,-0.034007,0.000000,0.000000,0.000000,-1,0.006683,0.059044,-0.000315,0.012337,-0.002004,-0.014196
"2018-06-07 01:55:50.746 +0000",1528336550.745886,1.396435,-1.374035,1.158670,0.192531,0.980705,-0.033914,0.000000,0.000000,0.000000,-1,0.002461,0.054628,0.002909,0.011296,-0.005592,-0.015448
"2018-06-07 01:55:50.756 +0000",1528336550.755959,1.396708,-1.374075,1.158543,0.192501,0.980713,-0.033855,0.000000,0.000000,0.000000,-1,0.002439,0.034846,0.008230,0.008839,-0.006225,-0.022038
"2018-06-07 01:55:50.766 +0000",1528336550.766032,1.396566,-1.374097,1.158153,0.192476,0.980717,-0.033879,0.000000,0.000000,0.000000,-1,0.007720,0.021697,0.006028,0.007491,-0.005696,-0.023754
"2018-06-07 01:55:50.776 +0000",1528336550.776105,1.395717,-1.374095,1.157125,0.192447,0.980717,-0.034042,0.000000,0.000000,0.000000,-1,0.017215,0.012959,0.001678,0.003064,-0.004764,-0.019883
"2018-06-07 01:55:50.786 +0000",1528336550.786178,1.394643,-1.374066,1.156083,0.192439,0.980711,-0.034254,0.000000,0.000000,0.000000,-1,0.014071,-0.012307,0.003763,0.003408,-0.004209,-0.014452
"2018-06-07 01:55:50.796 +0000",1528336550.796252,1.393719,-1.373994,1.155458,0.192477,0.980697,-0.034444,0.000000,0.000000,0.000000,-1,0.005682,-0.034290,0.004794,0.005460,-0.004638,-0.013896
"2018-06-07 01:55:50.806 +0000",1528336550.806325,1.393059,-1.373951,1.155147,0.192495,0.980688,-0.034578,0.000000,0.000000,0.000000,-1,0.000478,-0.033180,-0.001645,0.006556,-0.007742,-0.012419
"2018-06-07 01:55:50.816 +0000",1528336550.816398,1.392403,-1.373907,1.154830,0.192515,0.980680,-0.034712,0.000000,0.000000,0.000000,-1,0.000479,-0.034278,-0.001648,0.011144,-0.012250,-0.010866
"2018-06-07 01:55:50.826 +0000",1528336550.826471,1.391764,-1.373829,1.154575,0.192568,0.980665,-0.034849,0.000000,0.000000,0.000000,-1,-0.001648,-0.040888,0.002640,0.019712,-0.013914,-0.003527
"2018-06-07 01:55:50.837 +0000",1528336550.836544,1.391214,-1.373738,1.154538,0.192638,0.980647,-0.034971,0.000000,0.000000,0.000000,-1,-0.011116,-0.050808,0.005860,0.022267,-0.015498,0.002073
"2018-06-07 01:55:50.847 +0000",1528336550.846618,1.391115,-1.373678,1.155063,0.192691,0.980635,-0.035000,0.000000,0.000000,0.000000,-1,-0.020545,-0.058510,0.003708,0.018674,-0.012663,0.000836
"2018-06-07 01:55:50.857 +0000",1528336550.856691,1.391265,-1.373669,1.155908,0.192705,0.980633,-0.034973,0.000000,0.000000,0.000000,-1,-0.025779,-0.068400,0.002616,0.016814,-0.007535,0.002441
"2018-06-07 01:55:50.867 +0000",1528336550.866764,1.391612,-1.373649,1.157055,0.192737,0.980629,-0.034910,0.000000,0.000000,0.000000,-1,-0.031054,-0.078312,0.006901,0.014386,-0.004570,0.004408
"2018-06-07 01:55:50.877 +0000",1528336550.876837,1.392252,-1.373586,1.158524,0.192820,0.980617,-0.034798,0.000000,0.000000,0.000000,-1,-0.034231,-0.077237,0.010139,0.011785,-0.004192,0.007042
"2018-06-07 01:55:50.887 +0000",1528336550.886910,1.393079,-1.373479,1.160086,0.192952,0.980596,-0.034657,0.000000,0.000000,0.000000,-1,-0.034269,-0.064077,0.013404,0.006954,-0.005514,0.009525
"2018-06-07 01:55:50.897 +0000",1528336550.896984,1.394371,-1.373310,1.161980,0.193160,0.980563,-0.034436,0.000000,0.000000,0.000000,-1,-0.038522,-0.053134,0.018824,-0.001052,-0.004809,0.008176
"2018-06-07 01:55:50.907 +0000",1528336550.907057,1.395535,-1.373157,1.163742,0.193348,0.980533,-0.034238,0.000000,0.000000,0.000000,-1,-0.032143,-0.056369,0.009119,-0.009586,-0.001407,0.004636
"2018-06-07 01:55:50.917 +0000",1528336550.917130,1.396580,-1.373018,1.165472,0.193518,0.980505,-0.034059,0.000000,0.000000,0.000000,-1,-0.030021,-0.069532,0.008000,-0.017324,0.000406,0.000108
"2018-06-07 01:55:50.927 +0000",1528336550.927203,1.397211,-1.372941,1.166839,0.193613,0.980490,-0.033950,0.000000,0.000000,0.000000,-1,-0.023685,-0.070594,0.003680,-0.019877,0.001046,-0.000611
"2018-06-07 01:55:50.937 +0000",1528336550.937276,1.397731,-1.372900,1.168022,0.193671,0.980482,-0.033857,0.000000,0.000000,0.000000,-1,-0.021558,-0.062885,-0.000605,-0.017905,0.001085,0.001630
"2018-06-07 01:55:50.947 +0000",1528336550.947349,1.398107,-1.372882,1.168901,0.193700,0.980479,-0.033786,0.000000,0.000000,0.000000,-1,-0.013174,-0.044200,-0.000570,-0.016057,0.000753,0.002780
"2018-06-07 01:55:50.957 +0000",1528336550.957423,1.398406,-1.372854,1.169579,0.193737,0.980473,-0.033733,0.000000,0.000000,0.000000,-1,-0.010048,-0.035418,0.001600,-0.011547,-0.000279,0.004864
"2018-06-07 01:55:50.967 +0000",1528336550.967496,1.398805,-1.372835,1.170280,0.193769,0.980470,-0.033659,0.000000,0.000000,0.000000,-1,-0.007963,-0.027733,0.002693,-0.006849,-0.001237,0.006666
"2018-06-07 01:55:50.978 +0000",1528336550.977569,1.399366,-1.372830,1.171023,0.193792,0.980469,-0.033551,0.000000,0.000000,0.000000,-1,-0.011137,-0.012378,0.003821,-0.004721,-0.001556,0.007138
"2018-06-07 01:55:50.988 +0000",1528336550.987642,1.400168,-1.372884,1.171860,0.193767,0.980479,-0.033387,0.000000,0.000000,0.000000,-1,-0.015345,0.002984,0.002799,-0.004222,-0.001567,0.007798
"2018-06-07 01:55:50.998 +0000",1528336550.997715,1.401239,-1.372948,1.172835,0.193741,0.980492,-0.033169,0.000000,0.000000,0.000000,-1,-0.020616,0.013942,0.003919,-0.004684,-0.000466,0.006054
"2018-06-07 01:55:51.008 +0000",1528336551.007789,1.402221,-1.373056,1.173646,0.193669,0.980513,-0.032961,0.000000,0.000000,0.000000,-1,-0.017444,0.018356,0.000698,-0.005834,0.000002,0.002886
"2018-06-07 01:55:51.018 +0000",1528336551.017862,1.402948,-1.373125,1.174263,0.193626,0.980527,-0.032808,0.000000,0.000000,0.000000,-1,-0.011143,0.010684,0.001736,-0.010627,0.001758,-0.001905
"2018-06-07 01:55:51.028 +0000",1528336551.027935,1.403476,-1.373221,1.174771,0.193550,0.980545,-0.032690,0.000000,0.000000,0.000000,-1,-0.010059,0.001919,-0.001518,-0.014549,0.002853,-0.006387
"2018-06-07 01:55:51.038 +0000",1528336551.038008,1.403764,-1.373345,1.175055,0.193441,0.980570,-0.032615,0.000000,0.000000,0.000000,-1,-0.002656,0.000869,-0.007992,-0.013937,0.000387,-0.006677
"2018-06-07 01:55:51.048 +0000",1528336551.048081,1.403789,-1.373419,1.175033,0.193370,0.980584,-0.032598,0.000000,0.000000,0.000000,-1,0.002566,0.006359,-0.004761,-0.007655,-0.003656,-0.008982
"2018-06-07 01:55:51.058 +0000",1528336551.058155,1.403625,-1.373475,1.174740,0.193311,0.980595,-0.032620,0.000000,0.000000,0.000000,-1,0.005708,0.015147,-0.004746,0.000522,-0.003285,-0.005755
"2018-06-07 01:55:51.068 +0000",1528336551.068228,1.403698,-1.373494,1.174579,0.193295,0.980599,-0.032603,0.000000,0.000000,0.000000,-1,0.004616,0.023908,-0.000415,0.005604,-0.003472,-0.002568
"2018-06-07 01:55:51.078 +0000",1528336551.078301,1.404055,-1.373490,1.174627,0.193311,0.980598,-0.032535,0.000000,0.000000,0.000000,-1,0.000391,0.030473,0.001765,0.007236,-0.004921,-0.001828
"2018-06-07 01:55:51.088 +0000",1528336551.088374,1.404493,-1.373494,1.174765,0.193321,0.980599,-0.032450,0.000000,0.000000,0.000000,-1,-0.002765,0.027167,0.002838,0.006539,-0.007012,-0.002676
"2018-06-07 01:55:51.098 +0000",1528336551.098447,1.404922,-1.373549,1.174977,0.193282,0.980610,-0.032358,0.000000,0.000000,0.000000,-1,-0.007993,0.019477,0.000676,0.003252,-0.007221,-0.003424
"2018-06-07 01:55:51.109 +0000",1528336551.108520,1.405144,-1.373652,1.175135,0.193188,0.980630,-0.032298,0.000000,0.000000,0.000000,-1,-0.006892,0.001934,-0.003680,0.000812,-0.005120,-0.006276
"2018-06-07 01:55:51.119 +0000",1528336551.118594,1.405116,-1.373766,1.175195,0.193078,0.980652,-0.032285,0.000000,0.000000,0.000000,-1,-0.004764,-0.009029,-0.005868,0.001578,-0.003647,-0.005312
"2018-06-07 01:55:51.129 +0000",1528336551.128667,1.404956,-1.373859,1.175218,0.192983,0.980670,-0.032301,0.000000,0.000000,0.000000,-1,-0.007899,-0.017815,-0.006962,0.005412,-0.003864,-0.001970
"2018-06-07 01:55:51.139 +0000",1528336551.138740,1.405227,-1.373924,1.175581,0.192928,0.980683,-0.032238,0.000000,0.000000,0.000000,-1,-0.011071,-0.004655,-0.005841,0.007725,-0.005158,0.003079
"2018-06-07 01:55:51.149 +0000",1528336551.148813,1.405927,-1.373962,1.176255,0.192915,0.980691,-0.032097,0.000000,0.000000,0.000000,-1,-0.016348,0.005201,-0.003649,0.007784,-0.007088,0.005760
"2018-06-07 01:55:51.159 +0000",1528336551.158886,1.407037,-1.373947,1.177261,0.192965,0.980688,-0.031885,0.000000,0.000000,0.000000,-1,-0.021649,0.012848,0.001764,0.003798,-0.006734,0.003031
"2018-06-07 01:55:51.169 +0000",1528336551.168960,1.408103,-1.373937,1.178241,0.193007,0.980686,-0.031681,0.000000,0.000000,0.000000,-1,-0.018478,0.009572,-0.000404,-0.003829,-0.002628,-0.002438
"2018-06-07 01:55:51.179 +0000",1528336551.179033,1.408696,-1.373973,1.178834,0.192991,0.980693,-0.031561,0.000000,0.000000,0.000000,-1,-0.012132,-0.001369,-0.004753,-0.008497,0.001714,-0.006952
"2018-06-07 01:55:51.189 +0000",1528336551.189106,1.408806,-1.373988,1.179033,0.192981,0.980696,-0.031537,0.000000,0.000000,0.000000,-1,-0.003755,-0.009048,-0.000492,-0.006885,0.002199,-0.004733
"2018-06-07 01:55:51.199 +0000",1528336551.199179,1.408609,-1.374023,1.178907,0.192941,0.980703,-0.031570,0.000000,0.000000,0.000000,-1,-0.000567,-0.004626,-0.005865,-0.003503,0.000361,0.003951
"2018-06-07 01:55:51.209 +0000",1528336551.209252,1.408715,-1.374023,1.178991,0.192945,0.980702,-0.031549,0.000000,0.000000,0.000000,-1,-0.003760,0.004129,-0.001529,0.000201,-0.004277,0.011637
"2018-06-07 01:55:51.219 +0000",1528336551.219325,1.409335,-1.374005,1.179437,0.192980,0.980699,-0.031432,0.000000,0.000000,0.000000,-1,-0.007986,0.021677,-0.000393,0.000608,-0.004106,0.008712
"2018-06-07 01:55:51.229 +0000",1528336551.229399,1.410295,-1.373996,1.180178,0.193018,0.980697,-0.031248,0.000000,0.000000,0.000000,-1,-0.012183,0.024963,-0.001449,-0.001765,-0.001404,0.002501
"2018-06-07 01:55:51.239 +0000",1528336551.239472,1.410991,-1.374022,1.180617,0.193016,0.980702,-0.031110,0.000000,0.000000,0.000000,-1,-0.006916,0.026085,-0.003609,-0.003746,-0.000401,-0.000949
"2018-06-07 01:55:51.250 +0000",1528336551.249545,1.411284,-1.374069,1.180684,0.192980,0.980711,-0.031046,0.000000,0.000000,0.000000,-1,-0.001675,0.020601,-0.001486,-0.006288,-0.000426,-0.002279
"2018-06-07 01:55:51.260 +0000",1528336551.259618,1.411145,-1.374133,1.180434,0.192914,0.980724,-0.031063,0.000000,0.000000,0.000000,-1,0.000455,0.007443,-0.003681,-0.005734,-0.001262,-0.001758
"2018-06-07 01:55:51.270 +0000",1528336551.269691,1.411099,-1.374207,1.180219,0.192840,0.980739,-0.031061,0.000000,0.000000,0.000000,-1,0.001503,0.018428,-0.004727,-0.003249,-0.001445,0.001657
"2018-06-07 01:55:51.280 +0000",1528336551.279765,1.411540,-1.374258,1.180415,0.192804,0.980748,-0.030968,0.000000,0.000000,0.000000,-1,-0.005872,0.024985,-0.002539,-0.001306,-0.002431,0.001945
"2018-06-07 01:55:51.290 +0000",1528336551.289838,1.412248,-1.374255,1.180861,0.192829,0.980748,-0.030832,0.000000,0.000000,0.000000,-1,-0.003804,0.023875,0.001755,-0.000217,-0.003331,-0.000724
"2018-06-07 01:55:51.300 +0000",1528336551.299911,1.412617,-1.374268,1.180985,0.192828,0.980750,-0.030758,0.000000,0.000000,0.000000,-1,0.002524,0.022809,-0.001489,0.000944,-0.004798,-0.000492
"2018-06-07 01:55:51.310 +0000",1528336551.309984,1.412684,-1.374271,1.180807,0.192826,0.980751,-0.030745,0.000000,0.000000,0.000000,-1,0.004607,0.023903,0.000660,-0.000962,-0.004234,0.004134
"2018-06-07 01:55:51.320 +0000",1528336551.320057,1.412854,-1.374310,1.180781,0.192794,0.980758,-0.030706,0.000000,0.000000,0.000000,-1,-0.002707,0.018412,-0.003641,-0.003020,-0.003448,0.004034
"2018-06-07 01:55:51.330 +0000",1528336551.330131,1.413219,-1.374410,1.181035,0.192708,0.980778,-0.030620,0.000000,0.000000,0.000000,-1,-0.008958,0.008537,-0.009034,-0.001744,-0.002171,0.005565
"2018-06-07 01:55:51.340 +0000",1528336551.340204,1.413746,-1.374530,1.181470,0.192608,0.980801,-0.030500,0.000000,0.000000,0.000000,-1,-0.010018,0.009628,-0.007953,0.000752,-0.002026,0.004103
"2018-06-07 01:55:51.350 +0000",1528336551.350277,1.414510,-1.374605,1.182201,0.192558,0.980816,-0.030342,0.000000,0.000000,0.000000,-1,-0.017398,0.004100,-0.003649,0.006569,-0.003887,0.003044
"2018-06-07 01:55:51.360 +0000",1528336551.360350,1.415332,-1.374653,1.183013,0.192537,0.980825,-0.030176,0.000000,0.000000,0.000000,-1,-0.015313,0.002999,-0.001506,0.008055,-0.003729,0.000910
"2018-06-07 01:55:51.370 +0000",1528336551.370423,1.415955,-1.374684,1.183596,0.192526,0.980832,-0.030051,0.000000,0.000000,0.000000,-1,-0.011105,0.005211,-0.002585,0.005213,-0.003201,-0.002465
"2018-06-07 01:55:51.380 +0000",1528336551.380496,1.416458,-1.374679,1.184073,0.192547,0.980830,-0.029956,0.000000,0.000000,0.000000,-1,-0.007987,0.005202,0.001710,0.002339,-0.001292,-0.007367
"2018-06-07 01:55:51.391 +0000",1528336551.390570,1.416641,-1.374693,1.184237,0.192538,0.980833,-0.029918,0.000000,0.000000,0.000000,-1,0.000434,0.003039,-0.000466,0.000562,-0.001341,-0.007023
"2018-06-07 01:55:51.401 +0000",1528336551.400643,1.416526,-1.374691,1.184086,0.192537,0.980833,-0.029941,0.000000,0.000000,0.000000,-1,0.005685,0.004151,-0.000475,-0.000887,-0.001386,-0.003629
"2018-06-07 01:55:51.411 +0000",1528336551.410716,1.416287,-1.374692,1.183825,0.192529,0.980833,-0.029986,0.000000,0.000000,0.000000,-1,0.005688,0.000858,-0.000485,-0.003122,-0.001753,-0.000287
"2018-06-07 01:55:51.421 +0000",1528336551.420789,1.416189,-1.374673,1.183747,0.192544,0.980829,-0.030008,0.000000,0.000000,0.000000,-1,0.001476,-0.004652,0.001660,-0.001260,-0.002833,0.002191
"2018-06-07 01:55:51.431 +0000",1528336551.430862,1.416179,-1.374647,1.183793,0.192569,0.980824,-0.030014,0.000000,0.000000,0.000000,-1,0.001494,-0.006838,-0.000498,0.000150,-0.002492,0.002853
"2018-06-07 01:55:51.441 +0000",1528336551.440935,1.416002,-1.374613,1.183727,0.192596,0.980818,-0.030053,0.000000,0.000000,0.000000,-1,0.002550,-0.012324,-0.000516,0.001068,-0.000334,0.004800
"2018-06-07 01:55:51.451 +0000",1528336551.451009,1.415892,-1.374559,1.183754,0.192645,0.980807,-0.030082,0.000000,0.000000,0.000000,-1,-0.000632,-0.014546,0.003787,0.001050,-0.002032,0.004799
"2018-06-07 01:55:51.461 +0000",1528336551.461082,1.415862,-1.374493,1.183844,0.192709,0.980794,-0.030098,0.000000,0.000000,0.000000,-1,-0.004854,-0.010176,0.005961,-0.002126,-0.002858,0.003518
"2018-06-07 01:55:51.471 +0000",1528336551.471155,1.415979,-1.374435,1.184016,0.192768,0.980783,-0.030085,0.000000,0.000000,0.000000,-1,-0.005903,-0.003588,0.004907,-0.005207,-0.003122,0.001429
"2018-06-07 01:55:51.481 +0000",1528336551.481228,1.416012,-1.374434,1.184066,0.192771,0.980783,-0.030079,0.000000,0.000000,0.000000,-1,-0.000619,-0.002458,0.000596,-0.007300,-0.003640,-0.001767
"2018-06-07 01:55:51.491 +0000",1528336551.491302,1.415710,-1.374436,1.183790,0.192760,0.980783,-0.030136,0.000000,0.000000,0.000000,-1,0.006745,-0.005726,-0.000506,-0.004298,-0.004266,-0.004867
"2018-06-07 01:55:51.501 +0000",1528336551.501376,1.415123,-1.374423,1.183271,0.192754,0.980781,-0.030252,0.000000,0.000000,0.000000,-1,0.009898,-0.007913,-0.000520,-0.000921,-0.003119,-0.002952
"2018-06-07 01:55:51.511 +0000",1528336551.511448,1.414693,-1.374375,1.182850,0.192787,0.980771,-0.030342,0.000000,0.000000,0.000000,-1,0.008806,0.000848,0.003811,0.000526,-0.001600,0.003990
"2018-06-07 01:55:51.522 +0000",1528336551.521522,1.414616,-1.374316,1.182669,0.192842,0.980760,-0.030366,0.000000,0.000000,0.000000,-1,0.004578,0.011805,0.006003,-0.000337,-0.000993,0.008255
"2018-06-07 01:55:51.532 +0000",1528336551.531595,1.414877,-1.374258,1.182759,0.192906,0.980749,-0.030324,0.000000,0.000000,0.000000,-1,-0.000671,0.017284,0.004956,-0.004933,0.001124,0.008550
"2018-06-07 01:55:51.542 +0000",1528336551.541667,1.414983,-1.374232,1.182772,0.192935,0.980743,-0.030307,0.000000,0.000000,0.000000,-1,0.000407,0.006318,0.002770,-0.010516,-0.000641,0.006397
"2018-06-07 01:55:51.552 +0000",1528336551.551741,1.414850,-1.374251,1.182706,0.192912,0.980747,-0.030330,0.000000,0.000000,0.000000,-1,0.000450,-0.013428,-0.000514,-0.011775,-0.000675,0.002284
"2018-06-07 01:55:51.562 +0000",1528336551.561815,1.414596,-1.374293,1.182592,0.192864,0.980755,-0.030373,0.000000,0.000000,0.000000,-1,0.002567,-0.012315,-0.002667,-0.011238,-0.000363,0.002770
"2018-06-07 01:55:51.572 +0000",1528336551.571887,1.414375,-1.374331,1.182396,0.192820,0.980763,-0.030410,0.000000,0.000000,0.000000,-1,0.000452,0.001950,-0.002621,-0.005671,-0.000614,0.005126
"2018-06-07 01:55:51.582 +0000",1528336551.581960,1.414532,-1.374357,1.182380,0.192798,0.980768,-0.030375,0.000000,0.000000,0.000000,-1,-0.001667,0.020606,-0.002562,0.000576,-0.001642,0.006449
"2018-06-07 01:55:51.592 +0000",1528336551.592033,1.414963,-1.374319,1.182492,0.192849,0.980760,-0.030298,0.000000,0.000000,0.000000,-1,0.000378,0.035958,0.002856,0.000617,-0.000093,0.003259
"2018-06-07 01:55:51.602 +0000",1528336551.602107,1.415254,-1.374265,1.182386,0.192910,0.980750,-0.030250,0.000000,0.000000,0.000000,-1,0.007720,0.038169,0.003922,-0.002984,0.000558,-0.003380
"2018-06-07 01:55:51.612 +0000",1528336551.612180,1.414889,-1.374244,1.181712,0.192919,0.980746,-0.030324,0.000000,0.000000,0.000000,-1,0.018270,0.023946,-0.000446,-0.005755,-0.001482,-0.008434
"2018-06-07 01:55:51.622 +0000",1528336551.622253,1.413983,-1.374246,1.180652,0.192889,0.980746,-0.030498,0.000000,0.000000,0.000000,-1,0.022488,0.007491,-0.000504,-0.005465,-0.003497,-0.008244
"2018-06-07 01:55:51.632 +0000",1528336551.632327,1.412974,-1.374277,1.179635,0.192829,0.980752,-0.030688,0.000000,0.000000,0.000000,-1,0.018303,-0.001298,-0.001596,-0.002308,-0.003671,-0.001645
"2018-06-07 01:55:51.642 +0000",1528336551.642400,1.412266,-1.374318,1.178893,0.192767,0.980760,-0.030818,0.000000,0.000000,0.000000,-1,0.013054,0.004181,-0.002643,0.004148,-0.004915,0.003688
"2018-06-07 01:55:51.652 +0000",1528336551.652472,1.412107,-1.374326,1.178577,0.192754,0.980762,-0.030847,0.000000,0.000000,0.000000,-1,0.006722,0.018425,-0.000436,0.009562,-0.005115,0.003214
"2018-06-07 01:55:51.663 +0000",1528336551.662545,1.412283,-1.374279,1.178467,0.192805,0.980753,-0.030821,0.000000,0.000000,0.000000,-1,0.003520,0.028273,0.004978,0.011129,-0.006265,-0.000261
"2018-06-07 01:55:51.673 +0000",1528336551.672619,1.412433,-1.374223,1.178367,0.192864,0.980742,-0.030800,0.000000,0.000000,0.000000,-1,0.003524,0.023882,0.004965,0.007820,-0.006193,-0.004508
"2018-06-07 01:55:51.683 +0000",1528336551.682693,1.412264,-1.374184,1.178030,0.192897,0.980734,-0.030839,0.000000,0.000000,0.000000,-1,0.007752,0.014023,0.002776,0.002706,-0.006262,-0.006606
"2018-06-07 01:55:51.693 +0000",1528336551.692765,1.411691,-1.374182,1.177431,0.192880,0.980734,-0.030950,0.000000,0.000000,0.000000,-1,0.008844,-0.003524,-0.000505,0.002188,-0.007391,-0.005671
"2018-06-07 01:55:51.703 +0000",1528336551.702838,1.411009,-1.374220,1.176885,0.192823,0.980741,-0.031076,0.000000,0.000000,0.000000,-1,0.005748,-0.017781,-0.005917,0.004046,-0.005781,-0.005256
"2018-06-07 01:55:51.713 +0000",1528336551.712912,1.410745,-1.374245,1.176816,0.192791,0.980746,-0.031123,0.000000,0.000000,0.000000,-1,-0.001636,-0.020016,-0.001604,0.006687,-0.003115,-0.002523
"2018-06-07 01:55:51.723 +0000",1528336551.722986,1.410928,-1.374257,1.177093,0.192784,0.980748,-0.031085,0.000000,0.000000,0.000000,-1,-0.003757,-0.006853,-0.000486,0.011165,-0.004110,-0.000943
"2018-06-07 01:55:51.733 +0000",1528336551.733058,1.411331,-1.374185,1.177515,0.192865,0.980734,-0.031019,0.000000,0.000000,0.000000,-1,-0.006982,0.000786,0.008149,0.014486,-0.006964,-0.004183
"2018-06-07 01:55:51.743 +0000",1528336551.743132,1.411442,-1.374069,1.177585,0.192981,0.980712,-0.031015,0.000000,0.000000,0.000000,-1,0.002465,0.007399,0.008147,0.010693,-0.004775,-0.004767
"2018-06-07 01:55:51.753 +0000",1528336551.753204,1.411261,-1.373958,1.177417,0.193083,0.980690,-0.031068,0.000000,0.000000,0.000000,-1,0.002477,-0.004676,0.008112,0.003312,-0.002220,-0.001144
"2018-06-07 01:55:51.763 +0000",1528336551.763278,1.410910,-1.373885,1.177234,0.193143,0.980675,-0.031147,0.000000,0.000000,0.000000,-1,0.001443,-0.022243,0.008063,-0.002378,-0.002007,-0.002621
"2018-06-07 01:55:51.773 +0000",1528336551.773350,1.410357,-1.373851,1.177032,0.193158,0.980669,-0.031259,0.000000,0.000000,0.000000,-1,0.003618,-0.038672,0.000481,-0.004514,-0.001177,-0.005240
"2018-06-07 01:55:51.783 +0000",1528336551.783424,1.409862,-1.373838,1.176904,0.193156,0.980666,-0.031357,0.000000,0.000000,0.000000,-1,0.000472,-0.035383,-0.000578,-0.004497,-0.001922,-0.003555
"2018-06-07 01:55:51.793 +0000",1528336551.793498,1.409567,-1.373819,1.176855,0.193165,0.980663,-0.031417,0.000000,0.000000,0.000000,-1,0.000450,-0.021116,0.000539,-0.000233,-0.004283,-0.001390
"2018-06-07 01:55:51.804 +0000",1528336551.803571,1.409334,-1.373727,1.176733,0.193245,0.980645,-0.031476,0.000000,0.000000,0.000000,-1,0.004589,-0.007959,0.007022,0.005241,-0.005272,0.000256
"2018-06-07 01:55:51.814 +0000",1528336551.813643,1.409138,-1.373578,1.176553,0.193384,0.980615,-0.031537,0.000000,0.000000,0.000000,-1,0.005617,-0.002476,0.009186,0.006613,-0.005197,0.001539
"2018-06-07 01:55:51.824 +0000",1528336551.823717,1.408923,-1.373454,1.176373,0.193497,0.980591,-0.031599,0.000000,0.000000,0.000000,-1,0.003536,-0.005766,0.007030,0.002166,-0.003586,0.002378
"2018-06-07 01:55:51.834 +0000",1528336551.833789,1.408802,-1.373422,1.176393,0.193524,0.980585,-0.031627,0.000000,0.000000,0.000000,-1,0.000454,-0.016721,-0.000524,-0.002759,-0.002741,0.000911
"2018-06-07 01:55:51.844 +0000",1528336551.843863,1.408443,-1.373458,1.176273,0.193478,0.980592,-0.031691,0.000000,0.000000,0.000000,-1,0.000470,-0.025498,-0.001625,-0.004665,-0.003526,-0.000551
"2018-06-07 01:55:51.854 +0000",1528336551.853937,1.408036,-1.373485,1.176146,0.193438,0.980597,-0.031765,0.000000,0.000000,0.000000,-1,0.000461,-0.024405,-0.000546,-0.002871,-0.003989,-0.000873
"2018-06-07 01:55:51.864 +0000",1528336551.864009,1.407795,-1.373486,1.176097,0.193429,0.980597,-0.031812,0.000000,0.000000,0.000000,-1,-0.000605,-0.016728,0.000554,-0.001962,-0.002479,-0.000430
"2018-06-07 01:55:51.874 +0000",1528336551.874083,1.407587,-1.373475,1.175957,0.193434,0.980595,-0.031854,0.000000,0.000000,0.000000,-1,0.002542,-0.003542,-0.000490,-0.002165,-0.002766,0.003030
"2018-06-07 01:55:51.884 +0000",1528336551.884156,1.407630,-1.373433,1.175951,0.193476,0.980587,-0.031852,0.000000,0.000000,0.000000,-1,0.000407,0.006318,0.002770,0.000204,-0.003201,0.005653
"2018-06-07 01:55:51.894 +0000",1528336551.894229,1.407816,-1.373336,1.176069,0.193576,0.980568,-0.031832,0.000000,0.000000,0.000000,-1,0.000363,0.008491,0.008155,0.000043,-0.002754,0.004793
"2018-06-07 01:55:51.904 +0000",1528336551.904303,1.407961,-1.373286,1.176184,0.193629,0.980558,-0.031811,0.000000,0.000000,0.000000,-1,-0.000657,0.003013,0.004914,-0.003642,-0.000578,0.004071
"2018-06-07 01:55:51.914 +0000",1528336551.914376,1.408001,-1.373268,1.176249,0.193648,0.980555,-0.031807,0.000000,0.000000,0.000000,-1,-0.001685,-0.003567,0.002746,-0.008971,-0.001123,0.001030
"2018-06-07 01:55:51.924 +0000",1528336551.924448,1.407845,-1.373317,1.176201,0.193595,0.980564,-0.031829,0.000000,0.000000,0.000000,-1,-0.000560,-0.012310,-0.005887,-0.010841,-0.000981,-0.001512
"2018-06-07 01:55:51.935 +0000",1528336551.934522,1.407576,-1.373374,1.176059,0.193532,0.980575,-0.031872,0.000000,0.000000,0.000000,-1,0.001543,-0.014500,-0.005898,-0.006673,-0.003189,-0.002933
"2018-06-07 01:55:51.945 +0000",1528336551.944594,1.407399,-1.373402,1.175949,0.193499,0.980581,-0.031902,0.000000,0.000000,0.000000,-1,0.001501,-0.004638,-0.001567,-0.000917,-0.005483,-0.001149
"2018-06-07 01:55:51.955 +0000",1528336551.954669,1.407578,-1.373396,1.176116,0.193511,0.980580,-0.031868,0.000000,0.000000,0.000000,-1,-0.002735,0.005216,0.001698,0.002199,-0.004582,0.000557
"2018-06-07 01:55:51.965 +0000",1528336551.964741,1.408055,-1.373404,1.176478,0.193518,0.980581,-0.031774,0.000000,0.000000,0.000000,-1,-0.007985,0.011793,0.000654,0.000803,-0.001822,0.000509
"2018-06-07 01:55:51.975 +0000",1528336551.974814,1.408528,-1.373414,1.176876,0.193523,0.980583,-0.031681,0.000000,0.000000,0.000000,-1,-0.004820,0.006317,-0.000445,-0.000744,-0.000755,-0.004543
"2018-06-07 01:55:51.985 +0000",1528336551.984888,1.408511,-1.373457,1.176904,0.193481,0.980592,-0.031678,0.000000,0.000000,0.000000,-1,0.003620,-0.006819,-0.003729,-0.001037,-0.002137,-0.010513
"2018-06-07 01:55:51.995 +0000",1528336551.994961,1.407917,-1.373486,1.176487,0.193434,0.980597,-0.031788,0.000000,0.000000,0.000000,-1,0.009928,-0.021077,-0.002710,0.002291,-0.003165,-0.008907
"2018-06-07 01:55:52.005 +0000",1528336552.005034,1.407141,-1.373505,1.175931,0.193390,0.980601,-0.031935,0.000000,0.000000,0.000000,-1,0.008861,-0.021089,-0.000556,0.005951,-0.003840,-0.001802
"2018-06-07 01:55:52.015 +0000",1528336552.015108,1.406657,-1.373474,1.175589,0.193405,0.980595,-0.032034,0.000000,0.000000,0.000000,-1,0.006708,-0.010139,0.004859,0.007828,-0.003651,0.006155
"2018-06-07 01:55:52.025 +0000",1528336552.025180,1.406515,-1.373428,1.175560,0.193445,0.980586,-0.032068,0.000000,0.000000,0.000000,-1,-0.000650,-0.012360,0.005945,0.007483,-0.003245,0.005930
"2018-06-07 01:55:52.035 +0000",1528336552.035254,1.406668,-1.373362,1.175877,0.193513,0.980573,-0.032049,0.000000,0.000000,0.000000,-1,-0.005903,-0.020063,0.007010,0.004119,-0.002210,0.002981
"2018-06-07 01:55:52.045 +0000",1528336552.045326,1.406814,-1.373288,1.176231,0.193590,0.980559,-0.032033,0.000000,0.000000,0.000000,-1,-0.004852,-0.021158,0.007005,-0.001665,-0.001936,-0.001506
"2018-06-07 01:55:52.055 +0000",1528336552.055399,1.406693,-1.373227,1.176333,0.193645,0.980547,-0.032066,0.000000,0.000000,0.000000,-1,-0.001690,-0.023340,0.005916,-0.004878,-0.001055,-0.003029
"2018-06-07 01:55:52.065 +0000",1528336552.065474,1.406215,-1.373206,1.176092,0.193650,0.980542,-0.032162,0.000000,0.000000,0.000000,-1,0.003604,-0.023299,0.000530,-0.006959,-0.000592,-0.004001
"2018-06-07 01:55:52.076 +0000",1528336552.075547,1.405751,-1.373165,1.175891,0.193676,0.980534,-0.032259,0.000000,0.000000,0.000000,-1,0.003593,-0.028797,0.002665,-0.005917,-0.001058,-0.005507
"2018-06-07 01:55:52.086 +0000",1528336552.085619,1.405048,-1.373105,1.175459,0.193712,0.980523,-0.032405,0.000000,0.000000,0.000000,-1,0.009885,-0.027686,0.003730,-0.003007,-0.004006,-0.008092
"2018-06-07 01:55:52.096 +0000",1528336552.095693,1.404325,-1.373043,1.174984,0.193748,0.980510,-0.032555,0.000000,0.000000,0.000000,-1,0.014093,-0.025474,0.002651,-0.002738,-0.004268,-0.006706
"2018-06-07 01:55:52.106 +0000",1528336552.105765,1.403267,-1.372940,1.174219,0.193812,0.980490,-0.032776,0.000000,0.000000,0.000000,-1,0.019326,-0.032059,0.005847,-0.003138,-0.004523,-0.002700
"2018-06-07 01:55:52.116 +0000",1528336552.115839,1.401994,-1.372847,1.173270,0.193860,0.980472,-0.033038,0.000000,0.000000,0.000000,-1,0.020395,-0.034243,0.003687,-0.003064,-0.004489,0.002109
"2018-06-07 01:55:52.126 +0000",1528336552.125913,1.400724,-1.372803,1.172270,0.193861,0.980463,-0.033292,0.000000,0.000000,0.000000,-1,0.018312,-0.026551,0.000487,-0.003279,-0.004999,0.012830
"2018-06-07 01:55:52.136 +0000",1528336552.135985,1.400045,-1.372763,1.171818,0.193876,0.980455,-0.033430,0.000000,0.000000,0.000000,-1,0.005681,-0.024404,0.003749,-0.003416,-0.007601,0.022154
"2018-06-07 01:55:52.146 +0000",1528336552.146059,1.400091,-1.372739,1.172130,0.193901,0.980451,-0.033425,0.000000,0.000000,0.000000,-1,-0.011140,-0.025558,0.005935,-0.002754,-0.007810,0.022927
"2018-06-07 01:55:52.156 +0000",1528336552.156132,1.400840,-1.372743,1.173075,0.193921,0.980451,-0.033279,0.000000,0.000000,0.000000,-1,-0.022686,-0.016799,0.003836,-0.005262,-0.007536,0.023956
"2018-06-07 01:55:52.166 +0000",1528336552.166204,1.402288,-1.372828,1.174775,0.193887,0.980468,-0.032984,0.000000,0.000000,0.000000,-1,-0.039419,-0.023396,-0.004750,-0.010629,-0.005645,0.015086
"2018-06-07 01:55:52.176 +0000",1528336552.176279,1.404188,-1.372967,1.176985,0.193815,0.980495,-0.032593,0.000000,0.000000,0.000000,-1,-0.047810,-0.027806,-0.005819,-0.008451,-0.005154,0.007050
"2018-06-07 01:55:52.186 +0000",1528336552.186352,1.406148,-1.373125,1.179289,0.193726,0.980527,-0.032188,0.000000,0.000000,0.000000,-1,-0.048843,-0.027800,-0.007968,-0.003891,-0.007397,0.005195
"2018-06-07 01:55:52.196 +0000",1528336552.196424,1.407977,-1.373292,1.181428,0.193622,0.980559,-0.031807,0.000000,0.000000,0.000000,-1,-0.042534,-0.026680,-0.009055,-0.004505,-0.006866,0.006447
"2018-06-07 01:55:52.206 +0000",1528336552.206498,1.409701,-1.373443,1.183381,0.193532,0.980589,-0.031450,0.000000,0.000000,0.000000,-1,-0.036248,-0.018983,-0.007971,-0.008260,-0.002607,0.003724
"2018-06-07 01:55:52.217 +0000",1528336552.216570,1.411546,-1.373586,1.185389,0.193451,0.980617,-0.031070,0.000000,0.000000,0.000000,-1,-0.034155,-0.011293,-0.007954,-0.013870,0.003514,-0.002011
"2018-06-07 01:55:52.227 +0000",1528336552.226644,1.413052,-1.373736,1.186989,0.193352,0.980646,-0.030756,0.000000,0.000000,0.000000,-1,-0.022597,-0.006865,-0.009043,-0.015129,0.005117,-0.008490
"2018-06-07 01:55:52.237 +0000",1528336552.236717,1.414041,-1.373887,1.188056,0.193236,0.980676,-0.030541,0.000000,0.000000,0.000000,-1,-0.013135,-0.006834,-0.010140,-0.010619,0.001639,-0.011664
"2018-06-07 01:55:52.247 +0000",1528336552.246790,1.414437,-1.374019,1.188518,0.193121,0.980702,-0.030445,0.000000,0.000000,0.000000,-1,-0.006851,-0.005728,-0.008000,-0.005163,0.001217,-0.009182
"2018-06-07 01:55:52.257 +0000",1528336552.256864,1.414546,-1.374107,1.188630,0.193039,0.980719,-0.030410,0.000000,0.000000,0.000000,-1,-0.000569,-0.001328,-0.005850,-0.002655,0.000879,-0.006257
"2018-06-07 01:55:52.267 +0000",1528336552.266937,1.414677,-1.374178,1.188815,0.192975,0.980733,-0.030374,0.000000,0.000000,0.000000,-1,-0.002658,-0.005721,-0.006934,-0.002500,0.001216,-0.004431
"2018-06-07 01:55:52.277 +0000",1528336552.277009,1.414969,-1.374244,1.189163,0.192920,0.980746,-0.030308,0.000000,0.000000,0.000000,-1,-0.006886,-0.003550,-0.003691,0.000882,-0.000002,-0.003033
"2018-06-07 01:55:52.287 +0000",1528336552.287083,1.415225,-1.374324,1.189522,0.192851,0.980761,-0.030246,0.000000,0.000000,0.000000,-1,-0.006880,-0.010137,-0.003710,0.001379,-0.001010,-0.007458
"2018-06-07 01:55:52.297 +0000",1528336552.297156,1.415291,-1.374420,1.189792,0.192760,0.980780,-0.030219,0.000000,0.000000,0.000000,-1,-0.006868,-0.022212,-0.003745,0.002126,-0.003546,-0.011010
"2018-06-07 01:55:52.307 +0000",1528336552.307230,1.415043,-1.374488,1.189722,0.192687,0.980793,-0.030257,0.000000,0.000000,0.000000,-1,-0.000574,-0.013413,-0.003734,0.002443,-0.001072,-0.005312
"2018-06-07 01:55:52.317 +0000",1528336552.317302,1.414845,-1.374472,1.189542,0.192696,0.980790,-0.030297,0.000000,0.000000,0.000000,-1,0.001429,0.001917,0.007062,0.001258,-0.001115,-0.001624
"2018-06-07 01:55:52.327 +0000",1528336552.327375,1.414836,-1.374419,1.189542,0.192747,0.980780,-0.030307,0.000000,0.000000,0.000000,-1,-0.002761,-0.001384,0.005987,-0.003431,-0.001868,-0.004727
"2018-06-07 01:55:52.337 +0000",1528336552.337449,1.414793,-1.374354,1.189538,0.192809,0.980767,-0.030325,0.000000,0.000000,0.000000,-1,-0.000675,-0.003583,0.008127,-0.008742,-0.001092,-0.008600
"2018-06-07 01:55:52.348 +0000",1528336552.347522,1.414477,-1.374301,1.189221,0.192850,0.980757,-0.030394,0.000000,0.000000,0.000000,-1,0.007741,-0.000257,0.005966,-0.011179,-0.000547,-0.005082
"2018-06-07 01:55:52.358 +0000",1528336552.357595,1.413881,-1.374265,1.188691,0.192866,0.980750,-0.030515,0.000000,0.000000,0.000000,-1,0.009877,-0.010117,0.002705,-0.007915,-0.002722,-0.003253
"2018-06-07 01:55:52.368 +0000",1528336552.367669,1.413252,-1.374230,1.188264,0.192880,0.980743,-0.030641,0.000000,0.000000,0.000000,-1,0.004635,-0.021109,0.002685,-0.003244,-0.000381,-0.002654
"2018-06-07 01:55:52.378 +0000",1528336552.377741,1.412573,-1.374189,1.187851,0.192900,0.980735,-0.030778,0.000000,0.000000,0.000000,-1,0.004649,-0.026594,0.001594,0.000673,0.000268,-0.004362
"2018-06-07 01:55:52.388 +0000",1528336552.387815,1.412176,-1.374161,1.187699,0.192914,0.980729,-0.030859,0.000000,0.000000,0.000000,-1,0.002538,-0.024408,0.002681,0.005160,-0.001085,-0.006479
"2018-06-07 01:55:52.398 +0000",1528336552.397887,1.412012,-1.374090,1.187665,0.192978,0.980716,-0.030902,0.000000,0.000000,0.000000,-1,0.002483,-0.010160,0.008100,0.006729,-0.005862,-0.006696
