timestamp,timeIntervalSince1970,attitude.roll,attitude.pitch,attitude.yaw,gravity.x,gravity.y,gravity.z,magneticField.x,magneticField.y,magneticField.z,magneticField.accuracy,rotationRate.x,rotationRate.y,rotationRate.z,userAcceleration.x,userAcceleration.y,userAcceleration.z
"2018-06-07 01:58:34.178 +0000",1528336714.177627,-0.289624,0.182306,0.053975,-0.280859,-0.181298,-0.942470,0.000000,0.000000,0.000000,-1,-0.505427,0.194575,0.060058,0.043005,0.061623,-0.001820
"2018-06-07 01:58:34.188 +0000",1528336714.187700,-0.287498,0.176819,0.053617,-0.279132,-0.175899,-0.944004,0.000000,0.000000,0.000000,-1,-0.541779,0.207304,0.141927,0.066288,0.074459,0.003697
"2018-06-07 01:58:34.198 +0000",1528336714.197774,-0.284244,0.170495,0.053923,-0.276366,-0.169670,-0.945957,0.000000,0.000000,0.000000,-1,-0.618243,0.398842,0.227636,0.060302,0.090096,0.002200
"2018-06-07 01:58:34.208 +0000",1528336714.207847,-0.276514,0.162427,0.055029,-0.269410,-0.161714,-0.949351,0.000000,0.000000,0.000000,-1,-0.787845,0.928023,0.364019,0.042527,0.119508,0.047327
"2018-06-07 01:58:34.218 +0000",1528336714.217921,-0.263137,0.151668,0.057461,-0.257125,-0.151087,-0.954494,0.000000,0.000000,0.000000,-1,-1.029506,1.523656,0.574980,0.065719,0.136850,0.076244
"2018-06-07 01:58:34.228 +0000",1528336714.227994,-0.244013,0.138091,0.061636,-0.239299,-0.137652,-0.961139,0.000000,0.000000,0.000000,-1,-1.253240,2.096313,0.779380,0.111629,0.105502,0.117633
"2018-06-07 01:58:34.238 +0000",1528336714.238068,-0.220063,0.122991,0.066818,-0.216642,-0.122682,-0.968512,0.000000,0.000000,0.000000,-1,-1.361319,2.549110,0.846559,0.060118,0.045030,0.116827
"2018-06-07 01:58:34.248 +0000",1528336714.248141,-0.191903,0.107160,0.071382,-0.189633,-0.106955,-0.976012,0.000000,0.000000,0.000000,-1,-1.481532,2.941197,0.723200,-0.004749,0.033041,0.137038
"2018-06-07 01:58:34.258 +0000",1528336714.258214,-0.159901,0.090223,0.074503,-0.158573,-0.090101,-0.983228,0.000000,0.000000,0.000000,-1,-1.640251,3.297126,0.557874,-0.031963,0.030271,0.120145
"2018-06-07 01:58:34.268 +0000",1528336714.268288,-0.122846,0.071720,0.076438,-0.122222,-0.071658,-0.989913,0.000000,0.000000,0.000000,-1,-1.850818,3.866879,0.415877,-0.007737,0.025684,0.135771
"2018-06-07 01:58:34.278 +0000",1528336714.278361,-0.075548,0.049646,0.077831,-0.075384,-0.049625,-0.995919,0.000000,0.000000,0.000000,-1,-2.296650,4.994464,0.340580,0.069326,0.058872,0.329095
"2018-06-07 01:58:34.288 +0000",1528336714.288435,-0.018878,0.021893,0.079196,-0.018872,-0.021892,-0.999582,0.000000,0.000000,0.000000,-1,-2.893164,5.797930,0.231341,0.105969,0.085902,0.366541
"2018-06-07 01:58:34.299 +0000",1528336714.298508,0.041792,-0.010839,0.080499,0.041777,0.010839,-0.999068,0.000000,0.000000,0.000000,-1,-3.353002,6.058743,0.035234,0.046602,0.102824,0.254302
"2018-06-07 01:58:34.309 +0000",1528336714.308582,0.102563,-0.046663,0.081390,0.102272,0.046646,-0.993662,0.000000,0.000000,0.000000,-1,-3.602871,5.996649,-0.245118,-0.029167,0.117752,0.161433
"2018-06-07 01:58:34.319 +0000",1528336714.318655,0.160570,-0.083675,0.081138,0.159322,0.083577,-0.983683,0.000000,0.000000,0.000000,-1,-3.623996,5.654465,-0.597801,-0.085805,0.118754,0.012796
"2018-06-07 01:58:34.329 +0000",1528336714.328729,0.213595,-0.119251,0.079247,0.210469,0.118968,-0.970335,0.000000,0.000000,0.000000,-1,-3.351183,5.172426,-0.912841,-0.097463,0.116017,-0.213335
"2018-06-07 01:58:34.339 +0000",1528336714.338802,0.263354,-0.151230,0.076240,0.257349,0.150654,-0.954502,0.000000,0.000000,0.000000,-1,-2.900301,4.949251,-1.059734,-0.017755,0.142513,-0.298656
"2018-06-07 01:58:34.349 +0000",1528336714.348876,0.315098,-0.179841,0.073933,0.304911,0.178873,-0.935432,0.000000,0.000000,0.000000,-1,-2.596530,5.270360,-0.991730,0.127447,0.184500,-0.171379
"2018-06-07 01:58:34.359 +0000",1528336714.358949,0.364112,-0.205062,0.075777,0.348658,0.203627,-0.914862,0.000000,0.000000,0.000000,-1,-2.359974,4.504980,-0.516912,0.386800,0.203843,-0.114129
"2018-06-07 01:58:34.369 +0000",1528336714.369022,0.400431,-0.226065,0.084848,0.379897,0.224144,-0.897462,0.000000,0.000000,0.000000,-1,-2.271943,3.157359,0.222237,0.538820,0.199028,-0.011611
"2018-06-07 01:58:34.379 +0000",1528336714.379096,0.433105,-0.246700,0.101374,0.406984,0.244205,-0.880186,0.000000,0.000000,0.000000,-1,-2.629487,2.797451,0.732940,0.433912,0.185864,0.260313
"2018-06-07 01:58:34.389 +0000",1528336714.389169,0.464789,-0.269275,0.123723,0.432082,0.266033,-0.861703,0.000000,0.000000,0.000000,-1,-3.034753,2.488830,1.023394,0.285753,0.186512,0.270883
"2018-06-07 01:58:34.399 +0000",1528336714.399243,0.495824,-0.292126,0.149432,0.455600,0.287989,-0.842313,0.000000,0.000000,0.000000,-1,-3.168930,2.374900,1.139540,0.093365,0.220205,0.113477
"2018-06-07 01:58:34.409 +0000",1528336714.409316,0.525540,-0.314815,0.175525,0.477025,0.309640,-0.822539,0.000000,0.000000,0.000000,-1,-3.159276,2.073566,1.013866,-0.014409,0.254096,0.059981
"2018-06-07 01:58:34.419 +0000",1528336714.419390,0.550889,-0.336225,0.200226,0.494136,0.329926,-0.804350,0.000000,0.000000,0.000000,-1,-2.953023,1.634490,0.880888,-0.020869,0.233230,-0.111528
"2018-06-07 01:58:34.429 +0000",1528336714.429463,0.573955,-0.354652,0.224119,0.509168,0.347264,-0.787500,0.000000,0.000000,0.000000,-1,-2.666569,1.459395,0.939959,0.059039,0.232036,-0.148963
"2018-06-07 01:58:34.440 +0000",1528336714.439537,0.596957,-0.369816,0.248919,0.524125,0.361444,-0.771136,0.000000,0.000000,0.000000,-1,-2.493715,1.383272,1.144790,0.177474,0.220190,-0.082563
"2018-06-07 01:58:34.450 +0000",1528336714.449610,0.619047,-0.382086,0.275816,0.538416,0.372857,-0.755702,0.000000,0.000000,0.000000,-1,-2.388416,1.148617,1.412777,0.214498,0.121040,-0.072591
"2018-06-07 01:58:34.460 +0000",1528336714.459684,0.640265,-0.390837,0.304277,0.552358,0.380963,-0.741464,0.000000,0.000000,0.000000,-1,-2.188548,1.028474,1.661520,0.190105,0.016834,-0.134818
"2018-06-07 01:58:34.470 +0000",1528336714.469757,0.662747,-0.396132,0.333083,0.567637,0.385853,-0.727259,0.000000,0.000000,0.000000,-1,-1.961962,1.193125,1.815297,0.124654,0.003811,-0.154730
"2018-06-07 01:58:34.480 +0000",1528336714.479831,0.688572,-0.398524,0.361933,0.585639,0.388059,-0.711644,0.000000,0.000000,0.000000,-1,-1.805743,1.555285,1.943995,0.123895,0.006167,-0.110866
"2018-06-07 01:58:34.490 +0000",1528336714.489904,0.719939,-0.399061,0.391807,0.607532,0.388553,-0.692770,0.000000,0.000000,0.000000,-1,-1.828373,2.112293,2.086576,0.154308,0.007382,0.011313
"2018-06-07 01:58:34.500 +0000",1528336714.499977,0.758223,-0.398919,0.423916,0.633640,0.388423,-0.669050,0.000000,0.000000,0.000000,-1,-2.025187,2.702958,2.202764,0.160290,0.014211,0.136259
"2018-06-07 01:58:34.510 +0000",1528336714.510051,0.802524,-0.399232,0.458178,0.662561,0.388711,-0.640247,0.000000,0.000000,0.000000,-1,-2.296591,3.196229,2.196215,0.102789,0.055243,0.189716
"2018-06-07 01:58:34.520 +0000",1528336714.520124,0.851795,-0.400785,0.494246,0.692835,0.390141,-0.606440,0.000000,0.000000,0.000000,-1,-2.613302,3.578936,2.085111,0.008734,0.105159,0.225321
"2018-06-07 01:58:34.530 +0000",1528336714.530198,0.903687,-0.404014,0.532156,0.722364,0.393112,-0.568905,0.000000,0.000000,0.000000,-1,-2.951402,3.681871,1.921611,-0.043272,0.141449,0.216900
"2018-06-07 01:58:34.540 +0000",1528336714.540271,0.954674,-0.408586,0.571492,0.748944,0.397312,-0.530306,0.000000,0.000000,0.000000,-1,-3.193417,3.436078,1.735363,-0.059522,0.169719,0.118349
"2018-06-07 01:58:34.550 +0000",1528336714.550345,1.001299,-0.413003,0.610869,0.771362,0.401362,-0.493871,0.000000,0.000000,0.000000,-1,-3.203558,2.924994,1.614503,-0.019928,0.184942,-0.036082
"2018-06-07 01:58:34.560 +0000",1528336714.560418,1.041138,-0.415229,0.648659,0.789647,0.403400,-0.462305,0.000000,0.000000,0.000000,-1,-2.979176,2.282352,1.607817,0.038173,0.164776,-0.167242
"2018-06-07 01:58:34.570 +0000",1528336714.570492,1.073498,-0.414401,0.684046,0.804484,0.402642,-0.436674,0.000000,0.000000,0.000000,-1,-2.689098,1.636338,1.663359,0.053884,0.139595,-0.217562
"2018-06-07 01:58:34.581 +0000",1528336714.580565,1.099735,-0.410940,0.716918,0.816900,0.399471,-0.416049,0.000000,0.000000,0.000000,-1,-2.425346,1.205488,1.701300,0.076807,0.116795,-0.196210
"2018-06-07 01:58:34.591 +0000",1528336714.590639,1.122901,-0.405875,0.747902,0.828131,0.394823,-0.397885,0.000000,0.000000,0.000000,-1,-2.282336,1.055503,1.698385,0.087961,0.052854,-0.099963
"2018-06-07 01:58:34.601 +0000",1528336714.600712,1.145688,-0.400178,0.778338,0.839017,0.389583,-0.379835,0.000000,0.000000,0.000000,-1,-2.285432,1.100557,1.685616,0.093859,-0.008418,-0.014651
"2018-06-07 01:58:34.611 +0000",1528336714.610786,1.170600,-0.393994,0.808778,0.850421,0.383880,-0.359749,0.000000,0.000000,0.000000,-1,-2.307726,1.395818,1.680072,0.101117,-0.013320,0.003991
"2018-06-07 01:58:34.621 +0000",1528336714.620859,1.200796,-0.387353,0.836877,0.863252,0.377739,-0.334824,0.000000,0.000000,0.000000,-1,-2.025684,2.176725,1.511745,0.036742,-0.052986,-0.107879
"2018-06-07 01:58:34.631 +0000",1528336714.630932,1.238022,-0.381467,0.855631,0.877202,0.372282,-0.303185,0.000000,0.000000,0.000000,-1,-1.194178,3.264621,1.013907,-0.230474,-0.164793,-0.557868
"2018-06-07 01:58:34.641 +0000",1528336714.641006,1.279732,-0.375695,0.863931,0.891125,0.366919,-0.266956,0.000000,0.000000,0.000000,-1,-0.362998,3.966249,0.742982,-0.293926,-0.297461,-0.749569
"2018-06-07 01:58:34.651 +0000",1528336714.651079,1.319581,-0.367175,0.866661,0.904048,0.358981,-0.232012,0.000000,0.000000,0.000000,-1,0.056670,3.731544,0.969375,-0.130824,-0.358492,-0.616880
"2018-06-07 01:58:34.661 +0000",1528336714.661153,1.350431,-0.353757,0.869243,0.915392,0.346424,-0.205051,0.000000,0.000000,0.000000,-1,0.055830,2.676630,1.482617,0.056089,-0.240788,-0.463559
"2018-06-07 01:58:34.671 +0000",1528336714.671226,1.370274,-0.336299,0.874112,0.925067,0.329996,-0.188023,0.000000,0.000000,0.000000,-1,-0.134065,1.542685,1.868062,0.092618,-0.062158,-0.310848
"2018-06-07 01:58:34.681 +0000",1528336714.681300,1.383278,-0.317739,0.880379,0.933291,0.312420,-0.177089,0.000000,0.000000,0.000000,-1,-0.239999,1.003188,1.915139,-0.004671,0.033497,-0.146565
"2018-06-07 01:58:34.691 +0000",1528336714.691373,1.394936,-0.299778,0.886481,0.940666,0.295308,-0.167152,0.000000,0.000000,0.000000,-1,-0.243613,0.984827,1.840874,0.051949,-0.003301,-0.022408
"2018-06-07 01:58:34.701 +0000",1528336714.701447,1.407449,-0.282192,0.892448,0.947662,0.278461,-0.156190,0.000000,0.000000,0.000000,-1,-0.276078,1.107802,1.813339,0.162903,-0.046635,-0.006179
"2018-06-07 01:58:34.712 +0000",1528336714.711520,1.422316,-0.265026,0.898706,0.954466,0.261934,-0.142770,0.000000,0.000000,0.000000,-1,-0.345270,1.388856,1.761609,0.167192,-0.000627,0.020944
"2018-06-07 01:58:34.722 +0000",1528336714.721594,1.440871,-0.248740,0.905594,0.961054,0.246183,-0.125572,0.000000,0.000000,0.000000,-1,-0.467805,1.762144,1.669394,0.136099,0.015048,0.088097
"2018-06-07 01:58:34.732 +0000",1528336714.731667,1.462814,-0.233239,0.913767,0.967255,0.231130,-0.104854,0.000000,0.000000,0.000000,-1,-0.638782,2.044066,1.604992,0.099853,-0.068014,0.131389
"2018-06-07 01:58:34.742 +0000",1528336714.741741,1.485831,-0.219294,0.922061,0.972530,0.217541,-0.082831,0.000000,0.000000,0.000000,-1,-0.654057,2.084398,1.400771,-0.072673,-0.107754,0.043372
"2018-06-07 01:58:34.752 +0000",1528336714.751814,1.505833,-0.207633,0.928267,0.976457,0.206144,-0.063523,0.000000,0.000000,0.000000,-1,-0.454166,1.755679,1.125068,-0.261171,-0.155027,-0.152221
"2018-06-07 01:58:34.762 +0000",1528336714.761887,1.520472,-0.199220,0.931496,0.978980,0.197905,-0.049308,0.000000,0.000000,0.000000,-1,-0.201881,1.265057,0.748738,-0.448721,-0.151610,-0.237756
"2018-06-07 01:58:34.772 +0000",1528336714.771961,1.529412,-0.193120,0.932928,0.980569,0.191922,-0.040603,0.000000,0.000000,0.000000,-1,-0.108913,0.710423,0.610305,-0.540628,0.174335,-0.187134
"2018-06-07 01:58:34.782 +0000",1528336714.782034,1.533432,-0.187396,0.935120,0.981806,0.186301,-0.036702,0.000000,0.000000,0.000000,-1,-0.230927,0.256947,0.552256,-0.416468,0.294961,-0.028270
"2018-06-07 01:58:34.792 +0000",1528336714.792108,1.534837,-0.183265,0.938648,0.982618,0.182241,-0.035350,0.000000,0.000000,0.000000,-1,-0.353271,0.032318,0.372250,-0.378614,0.127543,-0.005590
"2018-06-07 01:58:34.802 +0000",1528336714.802181,1.534670,-0.181671,0.942568,0.982901,0.180674,-0.035524,0.000000,0.000000,0.000000,-1,-0.375244,-0.133499,0.108285,-0.224615,0.103674,-0.074690
"2018-06-07 01:58:34.812 +0000",1528336714.812255,1.533356,-0.182428,0.945931,0.982716,0.181418,-0.036811,0.000000,0.000000,0.000000,-1,-0.318768,-0.192736,-0.126507,-0.079366,0.031869,-0.115671
"2018-06-07 01:58:34.822 +0000",1528336714.822328,1.532090,-0.185547,0.948828,0.982099,0.184484,-0.038033,0.000000,0.000000,0.000000,-1,-0.290799,-0.167562,-0.352383,-0.078748,0.028803,-0.114448
"2018-06-07 01:58:34.832 +0000",1528336714.832402,1.532257,-0.191345,0.951514,0.981020,0.190180,-0.037826,0.000000,0.000000,0.000000,-1,-0.282424,0.020310,-0.645507,-0.103731,0.016607,0.068222
"2018-06-07 01:58:34.842 +0000",1528336714.842475,1.534552,-0.200920,0.953834,0.979239,0.199571,-0.035508,0.000000,0.000000,0.000000,-1,-0.249056,0.232871,-1.050483,-0.218436,-0.046541,0.112031
"2018-06-07 01:58:34.853 +0000",1528336714.852549,1.538615,-0.216084,0.954823,0.976238,0.214406,-0.031428,0.000000,0.000000,0.000000,-1,-0.099458,0.439017,-1.681630,-0.374996,-0.176930,0.046763
"2018-06-07 01:58:34.863 +0000",1528336714.862622,1.545975,-0.239915,0.952687,0.971058,0.237620,-0.024108,0.000000,0.000000,0.000000,-1,0.228628,0.929042,-2.612464,-0.578083,-0.356654,-0.066133
"2018-06-07 01:58:34.873 +0000",1528336714.872695,1.558942,-0.271143,0.947702,0.963397,0.267833,-0.011421,0.000000,0.000000,0.000000,-1,0.463657,1.564497,-3.205986,-0.598987,-0.354076,-0.075386
"2018-06-07 01:58:34.883 +0000",1528336714.882769,1.575758,-0.303366,0.942814,0.954324,0.298735,0.004735,0.000000,0.000000,0.000000,-1,0.430429,1.834232,-3.152419,-0.208108,-0.107817,0.088786
"2018-06-07 01:58:34.893 +0000",1528336714.892842,1.590064,-0.332578,0.939590,0.945028,0.326481,0.018210,0.000000,0.000000,0.000000,-1,0.324222,1.349454,-2.802925,0.085780,0.005398,0.197457
"2018-06-07 01:58:34.903 +0000",1528336714.902916,1.593828,-0.358785,0.934908,0.936075,0.351137,0.021563,0.000000,0.000000,0.000000,-1,0.575130,0.237993,-2.513082,0.128988,-0.010164,0.011198
"2018-06-07 01:58:34.913 +0000",1528336714.912989,1.586891,-0.381153,0.928746,0.928116,0.371991,0.014939,0.000000,0.000000,0.000000,-1,0.585406,-0.673772,-2.097332,0.337296,0.087115,0.143523
"2018-06-07 01:58:34.923 +0000",1528336714.923063,1.574280,-0.398405,0.925583,0.921675,0.387949,0.003211,0.000000,0.000000,0.000000,-1,0.201750,-1.269816,-1.576499,0.532045,0.131399,0.479363
"2018-06-07 01:58:34.933 +0000",1528336714.933136,1.557864,-0.410821,0.925874,0.916716,0.399363,-0.011856,0.000000,0.000000,0.000000,-1,-0.083723,-1.767561,-1.133052,0.637727,0.181036,0.420395
"2018-06-07 01:58:34.943 +0000",1528336714.943210,1.537285,-0.420362,0.926218,0.912428,0.408091,-0.030588,0.000000,0.000000,0.000000,-1,-0.018963,-2.117422,-0.906181,0.536653,0.206197,0.086709
"2018-06-07 01:58:34.953 +0000",1528336714.953283,1.516018,-0.429400,0.924605,0.907852,0.416325,-0.049780,0.000000,0.000000,0.000000,-1,0.142715,-1.969836,-0.914727,0.281495,0.117382,-0.134226
"2018-06-07 01:58:34.963 +0000",1528336714.963357,1.500876,-0.439673,0.921718,0.902680,0.425644,-0.063218,0.000000,0.000000,0.000000,-1,0.204147,-1.143434,-1.083492,0.055450,0.033844,-0.142257
"2018-06-07 01:58:34.973 +0000",1528336714.973430,1.494955,-0.452217,0.918319,0.896894,0.436961,-0.068152,0.000000,0.000000,0.000000,-1,0.215654,-0.229036,-1.327181,-0.089292,0.011266,-0.147729
"2018-06-07 01:58:34.984 +0000",1528336714.983504,1.497114,-0.466710,0.914860,0.890630,0.449951,-0.065743,0.000000,0.000000,0.000000,-1,0.186719,0.549865,-1.485120,-0.133412,0.047608,-0.163139
"2018-06-07 01:58:34.994 +0000",1528336714.993577,1.504950,-0.481190,0.912072,0.884523,0.462834,-0.058327,0.000000,0.000000,0.000000,-1,0.135444,0.983097,-1.426733,-0.054583,0.034724,-0.068458
"2018-06-07 01:58:35.004 +0000",1528336715.003651,1.513760,-0.494198,0.909431,0.878917,0.474326,-0.050184,0.000000,0.000000,0.000000,-1,0.164647,0.968214,-1.261194,-0.001171,0.056039,-0.058489
"2018-06-07 01:58:35.014 +0000",1528336715.013724,1.519245,-0.505641,0.906164,0.873701,0.484368,-0.045081,0.000000,0.000000,0.000000,-1,0.230001,0.602203,-1.109666,-0.039870,0.148826,-0.073099
"2018-06-07 01:58:35.024 +0000",1528336715.023797,1.520905,-0.515936,0.903720,0.868749,0.493349,-0.043379,0.000000,0.000000,0.000000,-1,0.127790,0.155814,-1.011772,-0.036366,0.171278,0.100417
"2018-06-07 01:58:35.034 +0000",1528336715.033871,1.517912,-0.525907,0.902981,0.863659,0.501998,-0.045717,0.000000,0.000000,0.000000,-1,-0.024126,-0.377094,-0.995764,-0.054974,0.121064,0.113466
"2018-06-07 01:58:35.044 +0000",1528336715.043944,1.513256,-0.536318,0.903427,0.858173,0.510974,-0.049434,0.000000,0.000000,0.000000,-1,-0.110874,-0.493558,-1.037887,-0.050114,0.088422,0.092052
"2018-06-07 01:58:35.054 +0000",1528336715.054018,1.508966,-0.546932,0.904375,0.852492,0.520069,-0.052777,0.000000,0.000000,0.000000,-1,-0.157006,-0.460691,-1.052744,-0.022719,0.009472,0.035779
"2018-06-07 01:58:35.064 +0000",1528336715.064091,1.505926,-0.557955,0.906066,0.846555,0.529452,-0.054994,0.000000,0.000000,0.000000,-1,-0.230273,-0.360806,-1.098539,-0.015424,-0.067019,-0.000854
"2018-06-07 01:58:35.074 +0000",1528336715.074165,1.505010,-0.569520,0.908162,0.840338,0.539228,-0.055363,0.000000,0.000000,0.000000,-1,-0.251138,-0.132332,-1.145155,0.012064,-0.100065,-0.015682
"2018-06-07 01:58:35.084 +0000",1528336715.084238,1.507333,-0.581307,0.909767,0.834063,0.549116,-0.053004,0.000000,0.000000,0.000000,-1,-0.188364,0.233455,-1.158218,0.081998,-0.064879,-0.030538
"2018-06-07 01:58:35.094 +0000",1528336715.094312,1.511349,-0.592657,0.910166,0.827994,0.558567,-0.049280,0.000000,0.000000,0.000000,-1,-0.074398,0.397141,-1.110674,0.197396,-0.031131,-0.041235
"2018-06-07 01:58:35.104 +0000",1528336715.104385,1.514573,-0.603477,0.910096,0.822066,0.567509,-0.046268,0.000000,0.000000,0.000000,-1,-0.056836,0.274016,-1.057290,0.199632,-0.032841,0.020145
"2018-06-07 01:58:35.114 +0000",1528336715.114459,1.516969,-0.613368,0.910421,0.816529,0.575625,-0.043994,0.000000,0.000000,0.000000,-1,-0.100702,0.249292,-0.949697,0.185088,-0.068529,0.116702
"2018-06-07 01:58:35.125 +0000",1528336715.124532,1.516466,-0.622532,0.910354,0.811206,0.583094,-0.044117,0.000000,0.000000,0.000000,-1,-0.002011,-0.193086,-0.889898,0.065503,-0.055033,0.047962
"2018-06-07 01:58:35.135 +0000",1528336715.134606,1.510039,-0.630247,0.907892,0.806391,0.589344,-0.049054,0.000000,0.000000,0.000000,-1,0.217674,-0.569689,-0.727999,-0.013773,-0.128132,-0.164370
"2018-06-07 01:58:35.145 +0000",1528336715.144679,1.497876,-0.636035,0.900177,0.802319,0.594011,-0.058610,0.000000,0.000000,0.000000,-1,0.723086,-0.800496,-0.588918,-0.038022,-0.317232,-0.307937
"2018-06-07 01:58:35.155 +0000",1528336715.154752,1.481556,-0.641007,0.885417,0.798305,0.598003,-0.071431,0.000000,0.000000,0.000000,-1,1.236705,-0.685936,-0.603745,-0.085139,-0.480952,-0.314785
"2018-06-07 01:58:35.165 +0000",1528336715.164826,1.469559,-0.646913,0.870224,0.793862,0.602726,-0.080645,0.000000,0.000000,0.000000,-1,1.058449,-0.156868,-0.708286,-0.174752,-0.300953,0.229586
"2018-06-07 01:58:35.175 +0000",1528336715.174899,1.459289,-0.650469,0.858461,0.790857,0.605560,-0.088554,0.000000,0.000000,0.000000,-1,0.859350,-0.379654,-0.330927,-0.101892,0.237397,0.691764
"2018-06-07 01:58:35.185 +0000",1528336715.184973,1.452408,-0.650458,0.849788,0.790236,0.605551,-0.093995,0.000000,0.000000,0.000000,-1,0.597333,-0.036914,-0.036754,-0.096373,0.293726,0.705353
"2018-06-07 01:58:35.195 +0000",1528336715.195046,1.452550,-0.650685,0.844617,0.790113,0.605732,-0.093866,0.000000,0.000000,0.000000,-1,0.364050,0.420386,-0.078991,-0.196714,0.073605,0.378855
"2018-06-07 01:58:35.205 +0000",1528336715.205120,1.454901,-0.650429,0.839519,0.790486,0.605528,-0.092026,0.000000,0.000000,0.000000,-1,0.433600,0.570603,0.009489,-0.083516,0.107699,-0.062789
"2018-06-07 01:58:35.215 +0000",1528336715.215193,1.457340,-0.648591,0.833185,0.791812,0.604064,-0.090223,0.000000,0.000000,0.000000,-1,0.535302,0.632819,0.162179,-0.051593,0.248353,-0.166902
"2018-06-07 01:58:35.225 +0000",1528336715.225267,1.460096,-0.645742,0.827005,0.793765,0.601791,-0.088231,0.000000,0.000000,0.000000,-1,0.508468,0.637922,0.236475,-0.051990,0.319519,-0.023738
"2018-06-07 01:58:35.235 +0000",1528336715.235340,1.461827,-0.643338,0.820944,0.795352,0.599870,-0.087014,0.000000,0.000000,0.000000,-1,0.510284,0.479086,0.156411,-0.036533,0.307967,-0.027397
"2018-06-07 01:58:35.245 +0000",1528336715.245414,1.460632,-0.642178,0.814238,0.795939,0.598941,-0.088041,0.000000,0.000000,0.000000,-1,0.553582,0.219601,0.021101,-0.041865,0.290509,-0.086535
"2018-06-07 01:58:35.255 +0000",1528336715.255487,1.457258,-0.641975,0.806973,0.795758,0.598778,-0.090739,0.000000,0.000000,0.000000,-1,0.584838,0.071847,-0.064376,-0.019635,0.263480,-0.051839
"2018-06-07 01:58:35.266 +0000",1528336715.265561,1.452507,-0.642307,0.799101,0.795120,0.599044,-0.094496,0.000000,0.000000,0.000000,-1,0.633670,-0.041963,-0.117526,0.043976,0.200761,-0.010271
"2018-06-07 01:58:35.276 +0000",1528336715.275634,1.445297,-0.642771,0.789502,0.794143,0.599415,-0.100191,0.000000,0.000000,0.000000,-1,0.784126,-0.127074,-0.140706,0.076722,0.159969,-0.019682
"2018-06-07 01:58:35.286 +0000",1528336715.285707,1.438225,-0.643119,0.779048,0.793207,0.599694,-0.105777,0.000000,0.000000,0.000000,-1,0.826086,-0.062185,-0.141689,0.085928,0.123741,-0.001432
"2018-06-07 01:58:35.296 +0000",1528336715.295781,1.431554,-0.643232,0.768380,0.792417,0.599785,-0.111056,0.000000,0.000000,0.000000,-1,0.839463,-0.015070,-0.111465,0.075702,0.102058,0.047763
"2018-06-07 01:58:35.306 +0000",1528336715.305854,1.424775,-0.642568,0.758005,0.792040,0.599253,-0.116483,0.000000,0.000000,0.000000,-1,0.818994,-0.073619,-0.037369,0.041792,0.095861,0.039686
"2018-06-07 01:58:35.316 +0000",1528336715.315928,1.417845,-0.641825,0.748052,0.791653,0.598658,-0.122037,0.000000,0.000000,0.000000,-1,0.781310,-0.104407,-0.050280,-0.033795,0.146276,0.050687
"2018-06-07 01:58:35.326 +0000",1528336715.326001,1.410633,-0.641673,0.738838,0.790842,0.598537,-0.127759,0.000000,0.000000,0.000000,-1,0.705284,-0.204214,-0.122464,-0.060602,0.128728,0.098980
"2018-06-07 01:58:35.336 +0000",1528336715.336075,1.401405,-0.642786,0.730371,0.788973,0.599428,-0.134938,0.000000,0.000000,0.000000,-1,0.628880,-0.502454,-0.257613,-0.049059,0.077864,0.057179
"2018-06-07 01:58:35.346 +0000",1528336715.346148,1.387095,-0.646116,0.721595,0.784994,0.602090,-0.145849,0.000000,0.000000,0.000000,-1,0.636754,-1.051269,-0.531365,-0.048849,-0.033486,0.007009
"2018-06-07 01:58:35.356 +0000",1528336715.356222,1.365253,-0.654079,0.710819,0.776903,0.608428,-0.161975,0.000000,0.000000,0.000000,-1,0.680417,-1.639435,-1.083906,-0.051638,-0.128280,0.025989
"2018-06-07 01:58:35.366 +0000",1528336715.366295,1.343799,-0.665356,0.701470,0.766515,0.617339,-0.177049,0.000000,0.000000,0.000000,-1,0.365563,-1.500114,-1.269942,-0.021093,-0.138335,0.173417
"2018-06-07 01:58:35.376 +0000",1528336715.376369,1.329137,-0.677854,0.699454,0.756286,0.627123,-0.186406,0.000000,0.000000,0.000000,-1,-0.323066,-1.267344,-1.212830,0.033921,-0.074557,0.148900
"2018-06-07 01:58:35.386 +0000",1528336715.386442,1.324363,-0.689575,0.707610,0.748208,0.636209,-0.188209,0.000000,0.000000,0.000000,-1,-1.072793,-0.891007,-0.876569,0.063346,-0.075891,0.047111
"2018-06-07 01:58:35.397 +0000",1528336715.396516,1.327980,-0.698756,0.725260,0.743182,0.643266,-0.184089,0.000000,0.000000,0.000000,-1,-1.665404,-0.771481,-0.452135,0.028851,-0.166963,-0.039421
"2018-06-07 01:58:35.407 +0000",1528336715.406589,1.334974,-0.706570,0.748449,0.739542,0.649229,-0.177707,0.000000,0.000000,0.000000,-1,-1.934117,-0.799068,-0.334355,0.038413,-0.158964,-0.085217
"2018-06-07 01:58:35.417 +0000",1528336715.416662,1.341581,-0.714158,0.773573,0.735881,0.654981,-0.171692,0.000000,0.000000,0.000000,-1,-2.036201,-1.044391,-0.277826,0.019917,-0.046797,-0.103958
"2018-06-07 01:58:35.427 +0000",1528336715.426736,1.349770,-0.720936,0.801515,0.732914,0.660088,-0.164684,0.000000,0.000000,0.000000,-1,-2.258847,-0.920359,-0.159710,-0.035175,-0.060296,0.063854
"2018-06-07 01:58:35.437 +0000",1528336715.436809,1.365090,-0.727336,0.833434,0.731200,0.664882,-0.152571,0.000000,0.000000,0.000000,-1,-2.506463,-0.530468,-0.105302,-0.051345,-0.010662,0.276274
"2018-06-07 01:58:35.447 +0000",1528336715.446883,1.382001,-0.733309,0.867818,0.729762,0.669332,-0.139436,0.000000,0.000000,0.000000,-1,-2.639923,-0.633022,-0.083782,0.073583,-0.030034,0.019304
"2018-06-07 01:58:35.457 +0000",1528336715.456956,1.399765,-0.739877,0.903729,0.727775,0.674197,-0.125701,0.000000,0.000000,0.000000,-1,-2.730407,-0.586655,-0.206063,0.074410,-0.052539,-0.006227
"2018-06-07 01:58:35.467 +0000",1528336715.467030,1.421441,-0.747973,0.938709,0.724907,0.680155,-0.109081,0.000000,0.000000,0.000000,-1,-2.598749,-0.044035,-0.457563,-0.009728,-0.024057,0.069591
"2018-06-07 01:58:35.477 +0000",1528336715.477103,1.446234,-0.758288,0.968442,0.720389,0.687680,-0.090201,0.000000,0.000000,0.000000,-1,-2.142840,0.585565,-0.817116,-0.055151,0.059772,-0.019174
"2018-06-07 01:58:35.487 +0000",1528336715.487177,1.470358,-0.770599,0.990765,0.713877,0.696565,-0.071942,0.000000,0.000000,0.000000,-1,-1.590834,0.949344,-1.074401,-0.054408,0.089980,-0.148105
"2018-06-07 01:58:35.497 +0000",1528336715.497250,1.495068,-0.782202,1.007242,0.707330,0.704843,-0.053668,0.000000,0.000000,0.000000,-1,-1.172614,1.438797,-1.022304,0.058631,-0.067819,0.007083
"2018-06-07 01:58:35.507 +0000",1528336715.507324,1.521158,-0.792562,1.020162,0.701158,0.712154,-0.034833,0.000000,0.000000,0.000000,-1,-0.907609,1.726900,-0.962913,0.116667,-0.049236,0.140104
"2018-06-07 01:58:35.517 +0000",1528336715.517397,1.545328,-0.802618,1.030560,0.694600,0.719178,-0.017694,0.000000,0.000000,0.000000,-1,-0.707894,1.617704,-0.969066,0.079844,0.044143,0.115106
"2018-06-07 01:58:35.527 +0000",1528336715.527471,1.564853,-0.812014,1.037956,0.688026,0.725674,-0.004089,0.000000,0.000000,0.000000,-1,-0.449739,1.328337,-0.903809,0.018868,0.030429,0.097320
"2018-06-07 01:58:35.538 +0000",1528336715.537544,1.577592,-0.820380,1.040442,0.681927,0.731405,0.004634,0.000000,0.000000,0.000000,-1,-0.062571,1.005182,-0.810979,-0.023022,0.026773,0.070683
"2018-06-07 01:58:35.548 +0000",1528336715.547618,1.581657,-0.828179,1.036146,0.676179,0.736701,0.007344,0.000000,0.000000,0.000000,-1,0.416383,0.612211,-0.762664,-0.033234,0.054528,0.057216
"2018-06-07 01:58:35.558 +0000",1528336715.557691,1.576237,-0.835786,1.024997,0.670585,0.741824,0.003649,0.000000,0.000000,0.000000,-1,0.858860,0.172065,-0.745596,-0.012992,0.074339,0.065413
"2018-06-07 01:58:35.568 +0000",1528336715.567764,1.562501,-0.842830,1.007749,0.665330,0.746529,-0.005519,0.000000,0.000000,0.000000,-1,1.233618,-0.156510,-0.677493,0.000228,0.046302,0.094661
"2018-06-07 01:58:35.578 +0000",1528336715.577838,1.543699,-0.848333,0.984990,0.660992,0.750179,-0.017916,0.000000,0.000000,0.000000,-1,1.571758,-0.163868,-0.530925,-0.011731,-0.025829,0.129488
"2018-06-07 01:58:35.588 +0000",1528336715.587911,1.522105,-0.851542,0.957955,0.658043,0.752297,-0.032067,0.000000,0.000000,0.000000,-1,1.802329,-0.125632,-0.333423,-0.030235,-0.080437,0.113472
"2018-06-07 01:58:35.598 +0000",1528336715.597985,1.499862,-0.852855,0.931456,0.656181,0.753162,-0.046624,0.000000,0.000000,0.000000,-1,1.659762,-0.251661,-0.217294,-0.044273,-0.108692,0.047844
"2018-06-07 01:58:35.608 +0000",1528336715.608058,1.483134,-0.854485,0.911298,0.654085,0.754233,-0.057486,0.000000,0.000000,0.000000,-1,1.156016,-0.083691,-0.292022,-0.028780,-0.101966,0.027060
"2018-06-07 01:58:35.618 +0000",1528336715.618132,1.477741,-0.856856,0.900440,0.651984,0.755788,-0.060846,0.000000,0.000000,0.000000,-1,0.528431,0.412918,-0.283762,0.012735,-0.077870,-0.005209
"2018-06-07 01:58:35.628 +0000",1528336715.628205,1.481278,-0.858472,0.897538,0.650977,0.756845,-0.058431,0.000000,0.000000,0.000000,-1,0.081842,0.558173,-0.139256,0.023904,0.045096,-0.074794
"2018-06-07 01:58:35.638 +0000",1528336715.638278,1.484497,-0.859075,0.898009,0.650707,0.757239,-0.056296,0.000000,0.000000,0.000000,-1,-0.053021,0.179740,-0.037862,-0.009060,0.114542,-0.118265
"2018-06-07 01:58:35.648 +0000",1528336715.648352,1.484720,-0.859374,0.899016,0.650494,0.757434,-0.056131,0.000000,0.000000,0.000000,-1,-0.072809,-0.113480,-0.023610,-0.089840,0.119458,-0.030707
"2018-06-07 01:58:35.658 +0000",1528336715.658426,1.484022,-0.859703,0.900481,0.650207,0.757649,-0.056563,0.000000,0.000000,0.000000,-1,-0.103174,-0.186003,-0.026979,-0.107208,0.100078,0.061721
"2018-06-07 01:58:35.668 +0000",1528336715.668499,1.483537,-0.860164,0.901977,0.649832,0.757949,-0.056848,0.000000,0.000000,0.000000,-1,-0.097890,-0.150824,-0.035494,-0.044256,0.055802,0.075754
"2018-06-07 01:58:35.679 +0000",1528336715.678573,1.483326,-0.860202,0.903413,0.649791,0.757974,-0.056983,0.000000,0.000000,0.000000,-1,-0.090990,-0.126888,0.020494,-0.013225,0.012869,0.058005
"2018-06-07 01:58:35.689 +0000",1528336715.688646,1.483044,-0.859350,0.904417,0.650417,0.757418,-0.057223,0.000000,0.000000,0.000000,-1,-0.043401,-0.101890,0.111887,-0.005520,-0.055209,0.029436
"2018-06-07 01:58:35.699 +0000",1528336715.698719,1.482176,-0.857657,0.905023,0.651644,0.756312,-0.057901,0.000000,0.000000,0.000000,-1,-0.021958,-0.124132,0.194598,0.002516,-0.092890,0.004953
"2018-06-07 01:58:35.709 +0000",1528336715.708793,1.482286,-0.855118,0.906193,0.653561,0.754648,-0.057998,0.000000,0.000000,0.000000,-1,-0.072002,-0.073019,0.276610,0.005222,-0.157374,0.059997
"2018-06-07 01:58:35.719 +0000",1528336715.718866,1.481454,-0.854580,0.907210,0.653917,0.754295,-0.058579,0.000000,0.000000,0.000000,-1,-0.037746,-0.203227,-0.064826,0.002257,-0.320824,0.048691
"2018-06-07 01:58:35.729 +0000",1528336715.728940,1.476181,-0.859448,0.905373,0.649936,0.757482,-0.061678,0.000000,0.000000,0.000000,-1,0.110640,-0.435409,-0.620874,-0.014712,-0.360357,0.044802
"2018-06-07 01:58:35.739 +0000",1528336715.739013,1.468150,-0.867601,0.901859,0.643255,0.762780,-0.066261,0.000000,0.000000,0.000000,-1,0.134695,-0.570446,-0.864418,-0.004491,-0.161400,0.086402
"2018-06-07 01:58:35.749 +0000",1528336715.749087,1.460669,-0.875634,0.899743,0.636630,0.767950,-0.070395,0.000000,0.000000,0.000000,-1,0.024655,-0.551421,-0.761925,0.035230,0.034174,0.081519
"2018-06-07 01:58:35.759 +0000",1528336715.759160,1.455943,-0.881373,0.898611,0.631901,0.771613,-0.072897,0.000000,0.000000,0.000000,-1,0.008877,-0.329661,-0.512769,0.086452,-0.079627,0.070486
"2018-06-07 01:58:35.769 +0000",1528336715.769234,1.452659,-0.885015,0.898489,0.628864,0.773924,-0.074640,0.000000,0.000000,0.000000,-1,-0.065112,-0.335087,-0.314697,0.043469,-0.141142,0.020715
"2018-06-07 01:58:35.779 +0000",1528336715.779306,1.450884,-0.887433,0.901321,0.626871,0.775453,-0.075532,0.000000,0.000000,0.000000,-1,-0.258191,-0.414080,-0.191861,-0.047693,-0.094560,0.039186
"2018-06-07 01:58:35.789 +0000",1528336715.789381,1.451104,-0.889663,0.907384,0.625169,0.776860,-0.075187,0.000000,0.000000,0.000000,-1,-0.445223,-0.454179,-0.177566,-0.098649,-0.094441,0.059623
"2018-06-07 01:58:35.799 +0000",1528336715.799454,1.452455,-0.892384,0.916429,0.623168,0.778570,-0.074093,0.000000,0.000000,0.000000,-1,-0.647597,-0.612717,-0.202304,-0.083999,-0.124334,0.049877
"2018-06-07 01:58:35.810 +0000",1528336715.809528,1.454402,-0.895183,0.929330,0.621144,0.780324,-0.072626,0.000000,0.000000,0.000000,-1,-0.881745,-0.858256,-0.182044,-0.037129,-0.142049,0.053995
"2018-06-07 01:58:35.820 +0000",1528336715.819601,1.456106,-0.898232,0.943213,0.618901,0.782227,-0.071295,0.000000,0.000000,0.000000,-1,-0.862611,-0.896520,-0.206939,-0.045750,-0.114548,0.048224
"2018-06-07 01:58:35.830 +0000",1528336715.829675,1.457021,-0.901129,0.953577,0.616711,0.784028,-0.070471,0.000000,0.000000,0.000000,-1,-0.590766,-0.634464,-0.214329,-0.023953,-0.094133,0.070303
"2018-06-07 01:58:35.840 +0000",1528336715.839747,1.457047,-0.902459,0.958475,0.615677,0.784853,-0.070337,0.000000,0.000000,0.000000,-1,-0.235343,-0.307093,-0.034558,0.067139,-0.042162,0.056619
"2018-06-07 01:58:35.850 +0000",1528336715.849821,1.457083,-0.902023,0.960633,0.616019,0.784583,-0.070353,0.000000,0.000000,0.000000,-1,-0.107088,-0.122727,0.064644,0.145333,0.059518,0.087794
"2018-06-07 01:58:35.860 +0000",1528336715.859895,1.457624,-0.901939,0.963399,0.616123,0.784531,-0.070027,0.000000,0.000000,0.000000,-1,-0.204302,-0.206216,0.014068,0.115307,0.018326,0.074590
"2018-06-07 01:58:35.870 +0000",1528336715.869967,1.458264,-0.902739,0.968801,0.615544,0.785026,-0.069563,0.000000,0.000000,0.000000,-1,-0.380994,-0.401767,-0.067845,0.049159,-0.016624,0.019560
"2018-06-07 01:58:35.880 +0000",1528336715.880042,1.459007,-0.905124,0.976092,0.613733,0.786501,-0.068896,0.000000,0.000000,0.000000,-1,-0.493045,-0.512255,-0.234635,-0.066049,-0.036410,-0.006986
"2018-06-07 01:58:35.890 +0000",1528336715.890115,1.459865,-0.909517,0.984538,0.610351,0.789208,-0.067987,0.000000,0.000000,0.000000,-1,-0.589237,-0.601774,-0.417534,-0.160782,-0.073387,0.028985
"2018-06-07 01:58:35.900 +0000",1528336715.900188,1.461662,-0.915299,0.995532,0.605927,0.792745,-0.066391,0.000000,0.000000,0.000000,-1,-0.779529,-0.717155,-0.516394,-0.117539,-0.059178,0.104202
"2018-06-07 01:58:35.910 +0000",1528336715.910262,1.464678,-0.921773,1.009656,0.601008,0.796674,-0.064019,0.000000,0.000000,0.000000,-1,-0.948251,-0.850314,-0.549740,-0.047740,-0.057355,0.116952
"2018-06-07 01:58:35.920 +0000",1528336715.920336,1.466676,-0.928201,1.024277,0.596029,0.800543,-0.062284,0.000000,0.000000,0.000000,-1,-0.908184,-0.991804,-0.552394,-0.014120,-0.076010,0.065503
"2018-06-07 01:58:35.930 +0000",1528336715.930408,1.463964,-0.935274,1.033644,0.590213,0.804762,-0.063295,0.000000,0.000000,0.000000,-1,-0.495559,-1.028611,-0.664238,-0.053775,-0.052107,0.028200
"2018-06-07 01:58:35.940 +0000",1528336715.940483,1.453103,-0.941879,1.032038,0.584199,0.808665,-0.069076,0.000000,0.000000,0.000000,-1,0.193317,-0.892777,-0.662193,0.038191,0.147969,-0.010514
"2018-06-07 01:58:35.951 +0000",1528336715.950556,1.436695,-0.948572,1.020480,0.577611,0.812584,-0.077926,0.000000,0.000000,0.000000,-1,0.691944,-0.653730,-0.791717,0.157725,0.126854,0.041641
"2018-06-07 01:58:35.961 +0000",1528336715.960629,1.411239,-0.957750,0.999695,0.568053,0.817899,-0.091414,0.000000,0.000000,0.000000,-1,1.177420,-0.962468,-1.192791,0.175141,-0.027311,-0.019868
"2018-06-07 01:58:35.971 +0000",1528336715.970703,1.374011,-0.971482,0.969751,0.553190,0.825722,-0.110287,0.000000,0.000000,0.000000,-1,1.435357,-1.254582,-1.782609,0.054323,0.066963,-0.029545
"2018-06-07 01:58:35.981 +0000",1528336715.980777,1.341088,-0.988713,0.942653,0.535325,0.835319,-0.125178,0.000000,0.000000,0.000000,-1,1.003531,-1.071289,-2.060755,-0.170991,0.021981,0.170344
"2018-06-07 01:58:35.991 +0000",1528336715.990849,1.301918,-1.009445,0.916258,0.513204,0.846536,-0.141414,0.000000,0.000000,0.000000,-1,0.821428,-1.907751,-2.453231,-0.307653,-0.065744,-0.121693
"2018-06-07 01:58:36.001 +0000",1528336716.000923,1.253072,-1.033471,0.887440,0.486222,0.859081,-0.159902,0.000000,0.000000,0.000000,-1,0.729289,-2.501430,-2.827995,-0.127488,0.194630,-0.091258
"2018-06-07 01:58:36.011 +0000",1528336716.010997,1.193354,-1.062160,0.849875,0.452708,0.873409,-0.179476,0.000000,0.000000,0.000000,-1,0.810053,-2.800444,-3.460454,0.128622,0.400532,0.076250
"2018-06-07 01:58:36.021 +0000",1528336716.021070,1.126242,-1.089854,0.810525,0.417649,0.886560,-0.198950,0.000000,0.000000,0.000000,-1,0.485147,-3.334282,-3.075106,0.272735,0.157172,0.047995
"2018-06-07 01:58:36.031 +0000",1528336716.031144,1.074581,-1.112587,0.786996,0.388992,0.896846,-0.210600,0.000000,0.000000,0.000000,-1,-0.282422,-2.875135,-2.340574,0.220902,-0.143047,0.213575
"2018-06-07 01:58:36.041 +0000",1528336716.041217,1.040877,-1.134516,0.776500,0.364614,0.906330,-0.213594,0.000000,0.000000,0.000000,-1,-0.755674,-2.278232,-2.062389,0.014460,-0.165119,0.256151
"2018-06-07 01:58:36.051 +0000",1528336716.051291,1.008983,-1.155791,0.764935,0.341220,0.915114,-0.214791,0.000000,0.000000,0.000000,-1,-0.631893,-2.112126,-2.062190,-0.089541,-0.034758,0.125405
"2018-06-07 01:58:36.061 +0000",1528336716.061364,0.966678,-1.175514,0.743513,0.316913,0.922888,-0.218733,0.000000,0.000000,0.000000,-1,-0.300463,-2.298707,-2.114047,-0.111590,-0.054388,0.069975
"2018-06-07 01:58:36.071 +0000",1528336716.071438,0.913479,-1.195107,0.711939,0.290461,0.930255,-0.224182,0.000000,0.000000,0.000000,-1,-0.182166,-2.407279,-2.323309,-0.191096,-0.104617,0.120774
"2018-06-07 01:58:36.082 +0000",1528336716.081511,0.854491,-1.215085,0.674059,0.262668,0.937399,-0.228666,0.000000,0.000000,0.000000,-1,-0.237356,-2.287453,-2.400280,-0.225772,-0.179922,0.163389
"2018-06-07 01:58:36.092 +0000",1528336716.091585,0.796732,-1.234232,0.633660,0.236151,0.943895,-0.230858,0.000000,0.000000,0.000000,-1,-0.291313,-1.825987,-2.269737,-0.117239,-0.229493,0.183723
"2018-06-07 01:58:36.102 +0000",1528336716.101658,0.741667,-1.250301,0.591176,0.212813,0.949079,-0.232290,0.000000,0.000000,0.000000,-1,-0.163509,-1.388725,-2.006300,0.056871,-0.188337,0.065359
"2018-06-07 01:58:36.112 +0000",1528336716.111732,0.689687,-1.262749,0.550276,0.192924,0.952927,-0.233901,0.000000,0.000000,0.000000,-1,-0.093520,-1.278953,-1.696355,0.136315,0.001388,-0.066011
"2018-06-07 01:58:36.122 +0000",1528336716.121805,0.637076,-1.273131,0.507672,0.174462,0.956024,-0.235757,0.000000,0.000000,0.000000,-1,-0.019658,-1.148434,-1.619774,0.040611,0.270707,-0.055320
"2018-06-07 01:58:36.132 +0000",1528336716.131877,0.582229,-1.283434,0.461867,0.155851,0.958995,-0.236727,0.000000,0.000000,0.000000,-1,-0.131625,-1.079322,-1.682780,-0.029356,0.398137,0.016618
"2018-06-07 01:58:36.142 +0000",1528336716.141952,0.523396,-1.295630,0.412596,0.135806,0.962380,-0.235333,0.000000,0.000000,0.000000,-1,-0.378298,-1.178200,-1.827714,-0.037432,0.400367,0.055248
"2018-06-07 01:58:36.152 +0000",1528336716.152025,0.457402,-1.309476,0.358058,0.114095,0.966050,-0.231799,0.000000,0.000000,0.000000,-1,-0.586250,-1.384685,-1.940781,-0.001638,0.348190,0.030291
"2018-06-07 01:58:36.162 +0000",1528336716.162098,0.384474,-1.324434,0.298804,0.091472,0.969806,-0.226074,0.000000,0.000000,0.000000,-1,-0.812910,-1.599376,-1.941963,-0.007777,0.209027,0.042724
"2018-06-07 01:58:36.172 +0000",1528336716.172172,0.312546,-1.340471,0.243218,0.070196,0.973592,-0.217234,0.000000,0.000000,0.000000,-1,-1.132895,-1.836256,-1.686991,-0.034857,-0.093374,0.089564
"2018-06-07 01:58:36.182 +0000",1528336716.182246,0.250059,-1.356955,0.199068,0.052515,0.977223,-0.205614,0.000000,0.000000,0.000000,-1,-1.334407,-1.941696,-1.283469,-0.062387,-0.367955,0.137087
"2018-06-07 01:58:36.192 +0000",1528336716.192318,0.193649,-1.372256,0.161038,0.037957,0.980356,-0.193551,0.000000,0.000000,0.000000,-1,-1.287992,-1.881097,-1.043531,-0.100548,-0.376138,0.116876
"2018-06-07 01:58:36.202 +0000",1528336716.202393,0.132520,-1.385603,0.116747,0.024330,0.982901,-0.182522,0.000000,0.000000,0.000000,-1,-1.121099,-1.704958,-1.050930,-0.125466,-0.141119,0.014385
"2018-06-07 01:58:36.212 +0000",1528336716.212466,0.066133,-1.395993,0.065629,0.011493,0.984761,-0.173532,0.000000,0.000000,0.000000,-1,-0.870758,-1.559658,-0.979012,-0.019672,-0.042332,-0.083670
"2018-06-07 01:58:36.223 +0000",1528336716.222539,0.001876,-1.403064,0.014674,0.000313,0.985966,-0.166944,0.000000,0.000000,0.000000,-1,-0.613585,-1.322361,-0.850909,0.095192,-0.065251,-0.085619
"2018-06-07 01:58:36.233 +0000",1528336716.232613,-0.055121,-1.407747,-0.032605,-0.008943,0.986737,-0.162079,0.000000,0.000000,0.000000,-1,-0.448880,-0.927182,-0.737194,0.113740,-0.002835,-0.046097
"2018-06-07 01:58:36.243 +0000",1528336716.242687,-0.105284,-1.410989,-0.076693,-0.016722,0.987258,-0.158244,0.000000,0.000000,0.000000,-1,-0.360523,-0.588052,-0.658964,0.081725,0.082612,-0.023198
"2018-06-07 01:58:36.253 +0000",1528336716.252759,-0.152656,-1.413553,-0.119596,-0.023812,0.987663,-0.154774,0.000000,0.000000,0.000000,-1,-0.340855,-0.487107,-0.633975,0.050546,0.167901,-0.023510
"2018-06-07 01:58:36.263 +0000",1528336716.262834,-0.202453,-1.416322,-0.164358,-0.030937,0.988093,-0.150716,0.000000,0.000000,0.000000,-1,-0.406929,-0.579499,-0.635168,0.030662,0.180380,-0.000223
"2018-06-07 01:58:36.273 +0000",1528336716.272907,-0.255089,-1.419114,-0.211776,-0.038127,0.988518,-0.146210,0.000000,0.000000,0.000000,-1,-0.435310,-0.557623,-0.635040,0.015300,0.111869,0.050858
"2018-06-07 01:58:36.283 +0000",1528336716.282979,-0.306378,-1.421163,-0.258526,-0.044962,0.988826,-0.142133,0.000000,0.000000,0.000000,-1,-0.371552,-0.489519,-0.602718,-0.001104,0.025014,0.055158
"2018-06-07 01:58:36.293 +0000",1528336716.293054,-0.353709,-1.422640,-0.301656,-0.051130,0.989045,-0.138475,0.000000,0.000000,0.000000,-1,-0.338488,-0.462267,-0.534949,-0.004809,-0.045716,0.051026
"2018-06-07 01:58:36.303 +0000",1528336716.303127,-0.396713,-1.423291,-0.340627,-0.056787,0.989141,-0.135555,0.000000,0.000000,0.000000,-1,-0.243190,-0.432501,-0.501736,-0.014898,-0.033285,0.049526
"2018-06-07 01:58:36.313 +0000",1528336716.313200,-0.436493,-1.423112,-0.376395,-0.062208,0.989114,-0.133350,0.000000,0.000000,0.000000,-1,-0.187692,-0.444521,-0.478233,-0.001894,0.010947,0.036762
"2018-06-07 01:58:36.323 +0000",1528336716.323274,-0.476334,-1.423607,-0.411428,-0.067245,0.989187,-0.130330,0.000000,0.000000,0.000000,-1,-0.313093,-0.541748,-0.412615,0.045685,-0.007284,0.044194
"2018-06-07 01:58:36.333 +0000",1528336716.333348,-0.517373,-1.426473,-0.446778,-0.071133,0.989603,-0.124997,0.000000,0.000000,0.000000,-1,-0.573501,-0.639658,-0.273545,0.078045,-0.146952,0.079251
"2018-06-07 01:58:36.343 +0000",1528336716.343421,-0.564309,-1.432061,-0.486013,-0.073960,0.990392,-0.116847,0.000000,0.000000,0.000000,-1,-0.795748,-0.858089,-0.165031,0.058244,-0.188359,0.075389
"2018-06-07 01:58:36.353 +0000",1528336716.353495,-0.614080,-1.438036,-0.526414,-0.076271,0.991200,-0.108185,0.000000,0.000000,0.000000,-1,-0.801330,-1.003265,-0.104129,0.015160,-0.195271,0.058442
"2018-06-07 01:58:36.364 +0000",1528336716.363568,-0.668568,-1.444309,-0.570273,-0.078194,0.992011,-0.098989,0.000000,0.000000,0.000000,-1,-0.839261,-1.119860,-0.074263,-0.007087,-0.182975,0.059912
"2018-06-07 01:58:36.374 +0000",1528336716.373641,-0.722406,-1.449474,-0.613673,-0.080018,0.992650,-0.090792,0.000000,0.000000,0.000000,-1,-0.705906,-1.044822,-0.078653,-0.035124,-0.088566,0.037341
"2018-06-07 01:58:36.384 +0000",1528336716.383715,-0.771026,-1.453878,-0.652809,-0.081290,0.993173,-0.083660,0.000000,0.000000,0.000000,-1,-0.579340,-0.918448,-0.025869,-0.021814,-0.070169,0.005322
"2018-06-07 01:58:36.394 +0000",1528336716.393789,-0.801489,-1.456752,-0.676637,-0.081749,0.993504,-0.079159,0.000000,0.000000,0.000000,-1,-0.344669,-0.589721,0.012198,-0.019615,-0.014439,-0.005710
"2018-06-07 01:58:36.404 +0000",1528336716.403862,-0.810479,-1.457921,-0.683068,-0.081616,0.993636,-0.077621,0.000000,0.000000,0.000000,-1,-0.064897,-0.152168,0.045099,-0.002613,0.105790,-0.009064
"2018-06-07 01:58:36.414 +0000",1528336716.413936,-0.796790,-1.458247,-0.670348,-0.080314,0.993673,-0.078504,0.000000,0.000000,0.000000,-1,0.124125,0.181658,0.145673,0.053763,0.140421,-0.022097
"2018-06-07 01:58:36.424 +0000",1528336716.424009,-0.767272,-1.458464,-0.644325,-0.077812,0.993697,-0.080685,0.000000,0.000000,0.000000,-1,0.196654,0.407575,0.247274,0.038170,0.163636,-0.014758
"2018-06-07 01:58:36.434 +0000",1528336716.434082,-0.727845,-1.459088,-0.609891,-0.074159,0.993767,-0.083227,0.000000,0.000000,0.000000,-1,0.225167,0.548851,0.346579,0.022035,0.102592,-0.000010
"2018-06-07 01:58:36.444 +0000",1528336716.444156,-0.678718,-1.459945,-0.566797,-0.069448,0.993862,-0.086106,0.000000,0.000000,0.000000,-1,0.245348,0.650603,0.441486,-0.005121,0.046055,-0.004180
"2018-06-07 01:58:36.454 +0000",1528336716.454229,-0.624744,-1.460775,-0.519253,-0.064219,0.993954,-0.089057,0.000000,0.000000,0.000000,-1,0.251440,0.662587,0.467322,-0.063299,0.083591,-0.016335
"2018-06-07 01:58:36.464 +0000",1528336716.464303,-0.570467,-1.461196,-0.470634,-0.059068,0.994000,-0.092059,0.000000,0.000000,0.000000,-1,0.270472,0.575940,0.461648,-0.064559,0.156589,-0.056028
"2018-06-07 01:58:36.474 +0000",1528336716.474376,-0.515767,-1.461124,-0.421741,-0.053981,0.993992,-0.095212,0.000000,0.000000,0.000000,-1,0.276882,0.617753,0.442394,-0.039265,0.185772,-0.030429
"2018-06-07 01:58:36.484 +0000",1528336716.484450,-0.462518,-1.460791,-0.374553,-0.048985,0.993955,-0.098248,0.000000,0.000000,0.000000,-1,0.273739,0.626536,0.440275,-0.017345,0.230471,-0.019946
"2018-06-07 01:58:36.495 +0000",1528336716.494523,-0.406011,-1.460030,-0.324155,-0.043657,0.993872,-0.101552,0.000000,0.000000,0.000000,-1,0.302842,0.645121,0.477910,0.016283,0.251886,-0.030131
"2018-06-07 01:58:36.505 +0000",1528336716.504597,-0.346634,-1.459083,-0.271147,-0.037873,0.993767,-0.104849,0.000000,0.000000,0.000000,-1,0.299344,0.670184,0.519941,0.014970,0.342201,-0.027002
"2018-06-07 01:58:36.515 +0000",1528336716.514669,-0.284853,-1.458202,-0.216162,-0.031574,0.993668,-0.107828,0.000000,0.000000,0.000000,-1,0.256942,0.721476,0.564289,0.039997,0.416504,-0.035666
"2018-06-07 01:58:36.525 +0000",1528336716.524744,-0.220597,-1.457802,-0.159268,-0.024671,0.993623,-0.110019,0.000000,0.000000,0.000000,-1,0.172418,0.781378,0.621666,0.070219,0.409896,-0.018917
"2018-06-07 01:58:36.535 +0000",1528336716.534817,-0.145544,-1.457698,-0.091682,-0.016367,0.993611,-0.111662,0.000000,0.000000,0.000000,-1,0.152188,0.791583,0.792769,0.111537,0.299953,-0.027880
"2018-06-07 01:58:36.545 +0000",1528336716.544890,-0.049787,-1.456786,-0.003708,-0.005662,0.993508,-0.113621,0.000000,0.000000,0.000000,-1,0.199581,0.842260,1.043434,0.138459,0.179481,-0.051280
"2018-06-07 01:58:36.555 +0000",1528336716.554964,0.071779,-1.454022,0.108490,0.008356,0.993190,-0.116210,0.000000,0.000000,0.000000,-1,0.279751,1.088079,1.378491,0.109412,0.056356,0.013823
"2018-06-07 01:58:36.565 +0000",1528336716.565037,0.222989,-1.448537,0.246294,0.026970,0.992536,-0.118935,0.000000,0.000000,0.000000,-1,0.297169,1.544176,1.789598,0.064461,-0.071836,0.124642
"2018-06-07 01:58:36.575 +0000",1528336716.575110,0.387493,-1.439667,0.393418,0.049408,0.991415,-0.121059,0.000000,0.000000,0.000000,-1,0.275570,1.927065,2.093018,-0.056121,-0.100378,0.145687
"2018-06-07 01:58:36.585 +0000",1528336716.585184,0.547980,-1.427214,0.534737,0.074544,0.989710,-0.122138,0.000000,0.000000,0.000000,-1,0.230655,2.054436,2.318301,-0.175039,-0.095987,0.097876
"2018-06-07 01:58:36.595 +0000",1528336716.595258,0.684136,-1.411197,0.651503,0.100439,0.987291,-0.123159,0.000000,0.000000,0.000000,-1,0.311415,2.048007,2.334232,-0.258627,-0.123140,0.043401
"2018-06-07 01:58:36.605 +0000",1528336716.605330,0.785556,-1.394327,0.734349,0.124154,0.984470,-0.124115,0.000000,0.000000,0.000000,-1,0.270918,1.913101,2.016617,-0.293267,-0.120151,0.019821
"2018-06-07 01:58:36.615 +0000",1528336716.615405,0.858748,-1.385505,0.792208,0.139467,0.982883,-0.120374,0.000000,0.000000,0.000000,-1,-0.286021,1.506840,1.143287,-0.293520,-0.166675,0.098737
"2018-06-07 01:58:36.625 +0000",1528336716.625478,0.914847,-1.382804,0.837077,0.148100,0.982381,-0.113983,0.000000,0.000000,0.000000,-1,-0.502193,1.082482,0.623011,-0.183073,-0.288152,0.151138
"2018-06-07 01:58:36.636 +0000",1528336716.635551,0.956331,-1.382090,0.872595,0.153273,0.982248,-0.108147,0.000000,0.000000,0.000000,-1,-0.467444,0.503850,0.409346,-0.058959,-0.317834,0.121133
"2018-06-07 01:58:36.646 +0000",1528336716.645625,0.982965,-1.381005,0.899077,0.156987,0.982044,-0.104619,0.000000,0.000000,0.000000,-1,-0.303746,-0.083916,0.365311,0.043377,-0.292560,0.090810
"2018-06-07 01:58:36.656 +0000",1528336716.655699,0.996859,-1.378879,0.918225,0.160177,0.981640,-0.103560,0.000000,0.000000,0.000000,-1,-0.148946,-0.613764,0.378475,0.120829,-0.232266,0.073867
"2018-06-07 01:58:36.666 +0000",1528336716.665771,1.001693,-1.376320,0.932451,0.162791,0.981149,-0.104138,0.000000,0.000000,0.000000,-1,-0.082187,-0.980103,0.347138,0.166478,-0.120370,0.054562
"2018-06-07 01:58:36.676 +0000",1528336716.675846,1.003967,-1.374822,0.945079,0.164268,0.980858,-0.104557,0.000000,0.000000,0.000000,-1,-0.150510,-0.980846,0.217139,0.200967,0.023109,0.058094
"2018-06-07 01:58:36.686 +0000",1528336716.685919,1.010104,-1.375561,0.958321,0.164292,0.981002,-0.103161,0.000000,0.000000,0.000000,-1,-0.290185,-0.544611,0.024036,0.236648,0.152619,0.072278
"2018-06-07 01:58:36.696 +0000",1528336716.695992,1.023277,-1.377974,0.971846,0.163615,0.981467,-0.099756,0.000000,0.000000,0.000000,-1,-0.355164,0.175797,-0.083435,0.278585,0.147225,0.090372
"2018-06-07 01:58:36.706 +0000",1528336716.706066,1.042725,-1.380390,0.985015,0.163475,0.981927,-0.095360,0.000000,0.000000,0.000000,-1,-0.325366,0.773015,-0.071009,0.293815,0.104025,0.048790
"2018-06-07 01:58:36.716 +0000",1528336716.716139,1.062439,-1.382324,0.995616,0.163664,0.982292,-0.091194,0.000000,0.000000,0.000000,-1,-0.243618,0.941191,-0.068556,0.231661,0.120095,-0.047661
"2018-06-07 01:58:36.726 +0000",1528336716.726213,1.077184,-1.383488,1.001895,0.163984,0.982509,-0.088230,0.000000,0.000000,0.000000,-1,-0.127158,0.801957,-0.034807,0.125689,0.102833,-0.112393
"2018-06-07 01:58:36.736 +0000",1528336716.736286,1.084773,-1.383597,1.003653,0.164554,0.982529,-0.086932,0.000000,0.000000,0.000000,-1,-0.003353,0.500184,0.019965,0.024914,0.058852,-0.126050
"2018-06-07 01:58:36.746 +0000",1528336716.746360,1.084586,-1.382764,1.000927,0.165263,0.982374,-0.087346,0.000000,0.000000,0.000000,-1,0.112231,0.164439,0.055295,-0.044703,0.015215,-0.085795
"2018-06-07 01:58:36.756 +0000",1528336716.756433,1.077370,-1.381478,0.994223,0.165741,0.982133,-0.089135,0.000000,0.000000,0.000000,-1,0.182928,-0.135033,0.049960,-0.075134,-0.009202,-0.027076
"2018-06-07 01:58:36.767 +0000",1528336716.766507,1.066114,-1.380220,0.985541,0.165808,0.981895,-0.091592,0.000000,0.000000,0.000000,-1,0.205343,-0.298429,0.023618,-0.070837,-0.016716,0.029672
"2018-06-07 01:58:36.777 +0000",1528336716.776580,1.054296,-1.379384,0.976621,0.165428,0.981737,-0.093951,0.000000,0.000000,0.000000,-1,0.177323,-0.299420,-0.020422,-0.056008,-0.018251,0.078753
"2018-06-07 01:58:36.787 +0000",1528336716.786654,1.044235,-1.379209,0.968937,0.164623,0.981703,-0.095697,0.000000,0.000000,0.000000,-1,0.120906,-0.228020,-0.068490,-0.031078,-0.026000,0.096810
"2018-06-07 01:58:36.797 +0000",1528336716.796727,1.037480,-1.379693,0.963660,0.163564,0.981795,-0.096565,0.000000,0.000000,0.000000,-1,0.040157,-0.130423,-0.097063,-0.009282,-0.030974,0.106483
"2018-06-07 01:58:36.807 +0000",1528336716.806801,1.035028,-1.380693,0.961651,0.162481,0.981985,-0.096464,0.000000,0.000000,0.000000,-1,-0.034459,-0.019722,-0.105175,0.003153,-0.038610,0.103696
"2018-06-07 01:58:36.817 +0000",1528336716.816874,1.035466,-1.381756,0.961755,0.161624,0.982185,-0.095859,0.000000,0.000000,0.000000,-1,-0.058844,0.043790,-0.083422,0.009778,-0.028267,0.094471
"2018-06-07 01:58:36.827 +0000",1528336716.826948,1.036890,-1.382690,0.963010,0.160971,0.982360,-0.095162,0.000000,0.000000,0.000000,-1,-0.071567,0.004150,-0.063071,0.003031,0.003800,0.074105
"2018-06-07 01:58:36.837 +0000",1528336716.837021,1.095533,-1.389381,1.021258,0.160422,0.983589,-0.082554,0.000000,0.000000,0.000000,-1,-0.096620,-0.070523,-0.073987,-0.009284,0.034843,0.040897
"2018-06-07 01:58:36.847 +0000",1528336716.847095,1.097339,-1.390687,1.024332,0.159428,0.983824,-0.081679,0.000000,0.000000,0.000000,-1,-0.110042,-0.131940,-0.096724,-0.010807,0.042940,0.032500
"2018-06-07 01:58:36.857 +0000",1528336716.857168,1.098170,-1.392217,1.026683,0.158156,0.984097,-0.080861,0.000000,0.000000,0.000000,-1,-0.104591,-0.150488,-0.120454,-0.002654,0.034580,0.028707
"2018-06-07 01:58:36.867 +0000",1528336716.867241,1.354181,-1.419852,1.280744,0.146855,0.988630,-0.032318,0.000000,0.000000,0.000000,-1,-0.089861,-0.132860,-0.125815,0.020946,0.012332,-0.023163
"2018-06-07 01:58:36.877 +0000",1528336716.877315,1.471470,-1.418065,1.397765,0.151386,0.988359,-0.015086,0.000000,0.000000,0.000000,-1,-0.065763,-0.087794,-0.123588,0.023159,-0.005617,-0.042149
"2018-06-07 01:58:36.887 +0000",1528336716.887388,1.519759,-1.412870,1.446094,0.157063,0.987556,-0.008023,0.000000,0.000000,0.000000,-1,-0.035466,-0.048257,-0.107407,0.018443,-0.017432,-0.052386
"2018-06-07 01:58:36.897 +0000",1528336716.897462,1.530808,-1.409138,1.457309,0.160823,0.986962,-0.006434,0.000000,0.000000,0.000000,-1,-0.005087,-0.024054,-0.099877,0.012609,-0.021218,-0.056020
"2018-06-07 01:58:36.908 +0000",1528336716.907535,1.513031,-1.409239,1.439962,0.160583,0.986978,-0.009287,0.000000,0.000000,0.000000,-1,0.019013,-0.022920,-0.092399,0.006241,-0.021753,-0.047720
"2018-06-07 01:58:36.918 +0000",1528336716.917609,1.480024,-1.411859,1.407580,0.157614,0.987396,-0.014346,0.000000,0.000000,0.000000,-1,0.021042,-0.026248,-0.082733,0.000986,-0.023025,-0.033276
"2018-06-07 01:58:36.928 +0000",1528336716.927681,1.448770,-1.414128,1.376972,0.154865,0.987753,-0.018992,0.000000,0.000000,0.000000,-1,0.008440,-0.028479,-0.082711,-0.003178,-0.020986,-0.020223
"2018-06-07 01:58:36.938 +0000",1528336716.937756,1.423774,-1.414903,1.352545,0.153585,0.987873,-0.022745,0.000000,0.000000,0.000000,-1,-0.009409,-0.027426,-0.083742,-0.007009,-0.018223,-0.008963
"2018-06-07 01:58:36.948 +0000",1528336716.947829,1.403700,-1.413974,1.333040,0.154003,0.987729,-0.025976,0.000000,0.000000,0.000000,-1,-0.026185,-0.031851,-0.086944,-0.004528,-0.015133,-0.004801
"2018-06-07 01:58:36.958 +0000",1528336716.957903,1.387786,-1.412361,1.317692,0.155135,0.987475,-0.028713,0.000000,0.000000,0.000000,-1,-0.035619,-0.035161,-0.089083,-0.004333,-0.009570,-0.005498
"2018-06-07 01:58:36.968 +0000",1528336716.967976,1.373498,-1.410789,1.303999,0.156230,0.987226,-0.031230,0.000000,0.000000,0.000000,-1,-0.041892,-0.039556,-0.092308,-0.005046,0.000201,-0.007222
"2018-06-07 01:58:36.978 +0000",1528336716.978050,1.360507,-1.409627,1.291627,0.156931,0.987040,-0.033496,0.000000,0.000000,0.000000,-1,-0.042906,-0.042834,-0.096618,-0.004374,0.005422,-0.010403
"2018-06-07 01:58:36.988 +0000",1528336716.988122,1.351213,-1.409259,1.282902,0.156968,0.986981,-0.035032,0.000000,0.000000,0.000000,-1,-0.037654,-0.042820,-0.096630,-0.001649,0.009464,-0.015093
"2018-06-07 01:58:36.998 +0000",1528336716.998197,1.346231,-1.409695,1.278334,0.156372,0.987051,-0.035718,0.000000,0.000000,0.000000,-1,-0.030303,-0.032915,-0.097694,-0.001648,0.011316,-0.020495
"2018-06-07 01:58:37.008 +0000",1528336717.008270,1.343540,-1.410674,1.275885,0.155333,0.987208,-0.035921,0.000000,0.000000,0.000000,-1,-0.007226,-0.018589,-0.095554,-0.000700,0.007284,-0.024657
"2018-06-07 01:58:37.018 +0000",1528336717.018342,1.342527,-1.411977,1.274885,0.154043,0.987415,-0.035787,0.000000,0.000000,0.000000,-1,0.013763,0.000132,-0.095547,-0.000998,-0.000491,-0.024012
"2018-06-07 01:58:37.028 +0000",1528336717.028417,1.341298,-1.413001,1.273495,0.153013,0.987576,-0.035746,0.000000,0.000000,0.000000,-1,0.027391,0.011138,-0.093395,-0.001631,-0.007199,-0.021307
"2018-06-07 01:58:37.038 +0000",1528336717.038490,1.338381,-1.413854,1.270395,0.152086,0.987710,-0.035998,0.000000,0.000000,0.000000,-1,0.035784,0.012255,-0.092336,0.000990,-0.014260,-0.019758
"2018-06-07 01:58:37.049 +0000",1528336717.048563,1.334360,-1.414662,1.266280,0.151165,0.987836,-0.036422,0.000000,0.000000,0.000000,-1,0.031576,0.002354,-0.090203,0.004703,-0.019696,-0.015442
"2018-06-07 01:58:37.059 +0000",1528336717.058637,1.329359,-1.415334,1.261346,0.150337,0.987940,-0.037019,0.000000,0.000000,0.000000,-1,0.021069,-0.010856,-0.088066,0.008018,-0.023081,-0.008544
"2018-06-07 01:58:37.069 +0000",1528336717.068711,1.323711,-1.415880,1.255974,0.149602,0.988024,-0.037736,0.000000,0.000000,0.000000,-1,0.005367,-0.031739,-0.092393,0.012415,-0.024508,-0.002532
"2018-06-07 01:58:37.079 +0000",1528336717.078784,1.317862,-1.416469,1.250575,0.148815,0.988115,-0.038464,0.000000,0.000000,0.000000,-1,-0.019823,-0.042783,-0.093443,0.012211,-0.026903,0.002774
"2018-06-07 01:58:37.089 +0000",1528336717.088858,1.312982,-1.417038,1.246256,0.148080,0.988202,-0.039046,0.000000,0.000000,0.000000,-1,-0.048177,-0.048350,-0.093394,0.008231,-0.030042,0.005553
"2018-06-07 01:58:37.099 +0000",1528336717.098931,1.310487,-1.417664,1.244311,0.147384,0.988298,-0.039256,0.000000,0.000000,0.000000,-1,-0.079718,-0.042963,-0.090080,0.001328,-0.024889,0.003139
"2018-06-07 01:58:37.109 +0000",1528336717.109004,1.310877,-1.418502,1.245033,0.146597,0.988426,-0.038985,0.000000,0.000000,0.000000,-1,-0.111163,-0.016655,-0.101763,-0.008948,-0.011283,-0.006989
"2018-06-07 01:58:37.119 +0000",1528336717.119078,1.313027,-1.419353,1.247298,0.145867,0.988554,-0.038456,0.000000,0.000000,0.000000,-1,-0.124762,0.003107,-0.111355,-0.013329,-0.002333,-0.023266
"2018-06-07 01:58:37.129 +0000",1528336717.129152,1.316125,-1.420257,1.250544,0.145121,0.988690,-0.037778,0.000000,0.000000,0.000000,-1,-0.123575,-0.009995,-0.127531,-0.010157,0.002109,-0.042635
"2018-06-07 01:58:37.139 +0000",1528336717.139225,1.319958,-1.421229,1.254905,0.144334,0.988836,-0.036984,0.000000,0.000000,0.000000,-1,-0.118168,-0.059321,-0.141670,0.001479,-0.003225,-0.055927
"2018-06-07 01:58:37.149 +0000",1528336717.149298,1.323738,-1.422205,1.259700,0.143538,0.988981,-0.036202,0.000000,0.000000,0.000000,-1,-0.105419,-0.106435,-0.154744,0.017870,-0.013364,-0.059349
"2018-06-07 01:58:37.159 +0000",1528336717.159372,1.327173,-1.423236,1.264391,0.142671,0.989133,-0.035462,0.000000,0.000000,0.000000,-1,-0.090729,-0.125073,-0.150529,0.034727,-0.024640,-0.053206
"2018-06-07 01:58:37.169 +0000",1528336717.169445,1.330768,-1.424283,1.269197,0.141791,0.989286,-0.034703,0.000000,0.000000,0.000000,-1,-0.091889,-0.114153,-0.137587,0.036462,-0.014036,-0.043956
"2018-06-07 01:58:37.180 +0000",1528336717.179519,1.334120,-1.425375,1.273949,0.140859,0.989445,-0.033975,0.000000,0.000000,0.000000,-1,-0.102508,-0.148294,-0.118300,0.024302,-0.001927,-0.046119
"2018-06-07 01:58:37.190 +0000",1528336717.189592,1.337593,-1.426904,1.280992,0.139505,0.989665,-0.033136,0.000000,0.000000,0.000000,-1,-0.206193,-0.424103,-0.123168,-0.016778,0.014348,-0.034766
"2018-06-07 01:58:37.200 +0000",1528336717.199666,1.339979,-1.428332,1.288194,0.138209,0.989869,-0.032480,0.000000,0.000000,0.000000,-1,-0.208579,-0.445133,-0.083425,-0.004527,-0.004044,-0.022208
"2018-06-07 01:58:37.210 +0000",1528336717.209739,1.334282,-1.429677,1.286806,0.136726,0.990059,-0.032955,0.000000,0.000000,0.000000,-1,-0.121950,-0.389702,-0.155530,-0.019600,-0.014885,-0.056080
"2018-06-07 01:58:37.220 +0000",1528336717.219813,1.320399,-1.431674,1.275848,0.134340,0.990338,-0.034359,0.000000,0.000000,0.000000,-1,-0.046554,-0.239670,-0.281117,0.031752,0.002933,-0.068332
"2018-06-07 01:58:37.230 +0000",1528336717.229886,1.304183,-1.433266,1.261270,0.132246,0.990558,-0.036118,0.000000,0.000000,0.000000,-1,-0.003622,-0.137477,-0.276615,0.084689,-0.024753,-0.072173
"2018-06-07 01:58:37.240 +0000",1528336717.239960,1.290321,-1.433789,1.248680,0.131235,0.990629,-0.037805,0.000000,0.000000,0.000000,-1,0.013717,-0.132219,-0.209950,0.113394,-0.051786,-0.033576
"2018-06-07 01:58:37.250 +0000",1528336717.250033,1.280414,-1.433915,1.240750,0.130734,0.990646,-0.039067,0.000000,0.000000,0.000000,-1,-0.010740,-0.215924,-0.160658,0.108585,-0.042755,0.011235
"2018-06-07 01:58:37.260 +0000",1528336717.260107,1.273123,-1.434077,1.236094,0.130291,0.990668,-0.039972,0.000000,0.000000,0.000000,-1,-0.058358,-0.270067,-0.107999,0.101002,-0.028739,0.019266
"2018-06-07 01:58:37.270 +0000",1528336717.270180,1.269422,-1.434971,1.235452,0.129297,0.990790,-0.040191,0.000000,0.000000,0.000000,-1,-0.087147,-0.295644,-0.048847,0.078207,-0.030280,0.017394
"2018-06-07 01:58:37.280 +0000",1528336717.280252,1.269742,-1.435189,1.238527,0.129103,0.990819,-0.040086,0.000000,0.000000,0.000000,-1,-0.078022,-0.255159,-0.011103,0.039995,-0.015279,0.017106
"2018-06-07 01:58:37.290 +0000",1528336717.290327,1.264424,-1.435322,1.235643,0.128763,0.990837,-0.040732,0.000000,0.000000,0.000000,-1,-0.089753,-0.217945,0.007318,0.007468,-0.005638,0.032889
"2018-06-07 01:58:37.300 +0000",1528336717.300400,1.262150,-1.434336,1.235366,0.129601,0.990704,-0.041321,0.000000,0.000000,0.000000,-1,-0.105586,-0.171901,0.011791,-0.018685,0.000660,0.043839
"2018-06-07 01:58:37.310 +0000",1528336717.310474,1.263152,-1.432167,1.238031,0.131691,0.990406,-0.041842,0.000000,0.000000,0.000000,-1,-0.119237,-0.149970,0.008659,-0.041404,0.013775,0.039904
"2018-06-07 01:58:37.321 +0000",1528336717.320547,1.272129,-1.429692,1.248645,0.134404,0.990061,-0.041380,0.000000,0.000000,0.000000,-1,-0.127513,-0.160908,-0.006413,-0.060552,0.027074,0.032469
"2018-06-07 01:58:37.331 +0000",1528336717.330621,1.286758,-1.427910,1.265102,0.136689,0.989809,-0.039904,0.000000,0.000000,0.000000,-1,-0.129424,-0.186072,-0.027995,-0.069901,0.028746,0.024767
"2018-06-07 01:58:37.341 +0000",1528336717.340693,1.299750,-1.426622,1.280052,0.138424,0.989625,-0.038466,0.000000,0.000000,0.000000,-1,-0.108285,-0.194727,-0.044203,-0.071163,0.030395,0.020872
"2018-06-07 01:58:37.351 +0000",1528336717.350768,1.309074,-1.425886,1.291236,0.139479,0.989519,-0.037362,0.000000,0.000000,0.000000,-1,-0.087240,-0.182566,-0.050670,-0.067824,0.030623,0.019128
"2018-06-07 01:58:37.361 +0000",1528336717.360841,1.314805,-1.426036,1.298702,0.139548,0.989540,-0.036525,0.000000,0.000000,0.000000,-1,-0.068292,-0.166015,-0.058194,-0.065741,0.029304,0.018122
"2018-06-07 01:58:37.371 +0000",1528336717.370914,1.320199,-1.426906,1.305422,0.138909,0.989666,-0.035558,0.000000,0.000000,0.000000,-1,-0.050472,-0.120953,-0.059180,-0.065056,0.029240,0.023259
"2018-06-07 01:58:37.381 +0000",1528336717.380988,1.325169,-1.428282,1.311197,0.137762,0.989862,-0.034535,0.000000,0.000000,0.000000,-1,-0.034733,-0.069296,-0.063368,-0.061453,0.028342,0.025868
"2018-06-07 01:58:37.391 +0000",1528336717.391062,1.327949,-1.429985,1.314373,0.136221,0.990102,-0.033747,0.000000,0.000000,0.000000,-1,-0.023215,-0.033038,-0.063289,-0.052557,0.024134,0.025126
"2018-06-07 01:58:37.401 +0000",1528336717.401134,1.328562,-1.431912,1.315237,0.134389,0.990371,-0.033206,0.000000,0.000000,0.000000,-1,-0.012711,-0.024222,-0.064363,-0.043797,0.024171,0.024600
"2018-06-07 01:58:37.411 +0000",1528336717.411208,1.327043,-1.433833,1.313993,0.132491,0.990635,-0.032950,0.000000,0.000000,0.000000,-1,0.001974,-0.029684,-0.061186,-0.032851,0.021160,0.027488
"2018-06-07 01:58:37.421 +0000",1528336717.421282,1.325067,-1.435598,1.312324,0.130729,0.990875,-0.032787,0.000000,0.000000,0.000000,-1,-0.000136,-0.028596,-0.060102,-0.028708,0.023347,0.032848
"2018-06-07 01:58:37.431 +0000",1528336717.431355,1.323741,-1.437174,1.311261,0.129172,0.991086,-0.032578,0.000000,0.000000,0.000000,-1,-0.005392,-0.024220,-0.060077,-0.025763,0.023578,0.037324
"2018-06-07 01:58:37.441 +0000",1528336717.441429,1.323248,-1.438651,1.310901,0.127738,0.991282,-0.032283,0.000000,0.000000,0.000000,-1,-0.013825,-0.009982,-0.057865,-0.020224,0.020864,0.037639
"2018-06-07 01:58:37.452 +0000",1528336717.451502,1.323728,-1.440071,1.311433,0.126387,0.991468,-0.031878,0.000000,0.000000,0.000000,-1,-0.015938,-0.005601,-0.056772,-0.013243,0.017215,0.032595
"2018-06-07 01:58:37.462 +0000",1528336717.461576,1.324635,-1.441409,1.312439,0.125131,0.991641,-0.031440,0.000000,0.000000,0.000000,-1,-0.012804,-0.014388,-0.053578,-0.006784,0.011487,0.025779
"2018-06-07 01:58:37.472 +0000",1528336717.471649,1.325614,-1.442545,1.313604,0.124067,0.991787,-0.031044,0.000000,0.000000,0.000000,-1,-0.011787,-0.022092,-0.048224,-0.003248,0.007297,0.021797
"2018-06-07 01:58:37.482 +0000",1528336717.481723,1.326713,-1.443547,1.315025,0.123136,0.991915,-0.030667,0.000000,0.000000,0.000000,-1,-0.012859,-0.034188,-0.043954,0.000475,0.004469,0.020703
"2018-06-07 01:58:37.492 +0000",1528336717.491796,1.328655,-1.444392,1.317309,0.122382,0.992022,-0.030227,0.000000,0.000000,0.000000,-1,-0.015000,-0.035315,-0.038575,0.002618,0.004606,0.019851
"2018-06-07 01:58:37.502 +0000",1528336717.501870,1.331574,-1.445194,1.320557,0.121696,0.992122,-0.029681,0.000000,0.000000,0.000000,-1,-0.017119,-0.033134,-0.036412,0.004891,0.001469,0.018496
"2018-06-07 01:58:37.512 +0000",1528336717.511943,1.335575,-1.445970,1.324902,0.121063,0.992219,-0.029014,0.000000,0.000000,0.000000,-1,-0.024493,-0.036461,-0.033178,0.006836,-0.001161,0.014259
"2018-06-07 01:58:37.522 +0000",1528336717.522017,1.340041,-1.446651,1.329746,0.120533,0.992304,-0.028318,0.000000,0.000000,0.000000,-1,-0.025573,-0.039776,-0.028882,0.006649,-0.001184,0.010145
"2018-06-07 01:58:37.532 +0000",1528336717.532090,1.344678,-1.447242,1.334817,0.120091,0.992377,-0.027627,0.000000,0.000000,0.000000,-1,-0.030802,-0.046368,-0.031041,0.002269,-0.000373,0.005807
"2018-06-07 01:58:37.542 +0000",1528336717.542163,1.348547,-1.447723,1.339221,0.119733,0.992436,-0.027058,0.000000,0.000000,0.000000,-1,-0.030793,-0.055150,-0.031067,-0.000852,0.003017,0.001865
"2018-06-07 01:58:37.552 +0000",1528336717.552237,1.351791,-1.448157,1.343089,0.119399,0.992489,-0.026575,0.000000,0.000000,0.000000,-1,-0.030776,-0.065025,-0.032171,-0.001205,0.002308,-0.002615
"2018-06-07 01:58:37.562 +0000",1528336717.562310,1.354545,-1.448529,1.346521,0.119114,0.992535,-0.026168,0.000000,0.000000,0.000000,-1,-0.022360,-0.069388,-0.033279,-0.000019,0.002079,-0.004106
"2018-06-07 01:58:37.572 +0000",1528336717.572384,1.356394,-1.448824,1.349091,0.118876,0.992571,-0.025885,0.000000,0.000000,0.000000,-1,-0.012945,-0.072678,-0.027931,0.000265,0.001417,-0.005655
"2018-06-07 01:58:37.582 +0000",1528336717.582457,1.357696,-1.449041,1.351079,0.118700,0.992597,-0.025685,0.000000,0.000000,0.000000,-1,-0.005612,-0.069373,-0.025787,-0.000017,0.002444,-0.006023
"2018-06-07 01:58:37.593 +0000",1528336717.592531,1.358385,-1.449184,1.352466,0.118579,0.992614,-0.025573,0.000000,0.000000,0.000000,-1,-0.003534,-0.071576,-0.022572,-0.002459,0.002274,-0.004349
"2018-06-07 01:58:37.603 +0000",1528336717.602604,1.358635,-1.449295,1.353400,0.118480,0.992628,-0.025521,0.000000,0.000000,0.000000,-1,-0.002512,-0.068294,-0.019337,-0.005259,0.001574,-0.003044
"2018-06-07 01:58:37.613 +0000",1528336717.612678,1.358288,-1.449414,1.353749,0.118356,0.992642,-0.025537,0.000000,0.000000,0.000000,-1,-0.001502,-0.069411,-0.013965,-0.007363,-0.000699,-0.001395
"2018-06-07 01:58:37.623 +0000",1528336717.622751,1.357177,-1.449554,1.353321,0.118191,0.992659,-0.025639,0.000000,0.000000,0.000000,-1,0.005856,-0.066093,-0.015048,-0.009427,-0.001174,0.000203
"2018-06-07 01:58:37.633 +0000",1528336717.632825,1.355275,-1.449640,1.352020,0.118060,0.992670,-0.025846,0.000000,0.000000,0.000000,-1,0.010017,-0.058415,-0.010732,-0.013522,-0.002542,0.002653
"2018-06-07 01:58:37.643 +0000",1528336717.642898,1.353364,-1.449687,1.350611,0.117967,0.992675,-0.026062,0.000000,0.000000,0.000000,-1,0.008949,-0.049640,-0.009629,-0.018312,-0.003173,0.005935
"2018-06-07 01:58:37.653 +0000",1528336717.652972,1.351485,-1.449777,1.349135,0.117830,0.992686,-0.026264,0.000000,0.000000,0.000000,-1,0.008980,-0.038640,-0.014975,-0.024813,-0.001551,0.009067
"2018-06-07 01:58:37.663 +0000",1528336717.663044,1.350306,-1.449901,1.348281,0.117680,0.992701,-0.026376,0.000000,0.000000,0.000000,-1,-0.001515,-0.029878,-0.017077,-0.031437,-0.000529,0.009713
"2018-06-07 01:58:37.673 +0000",1528336717.673118,1.349831,-1.450121,1.348072,0.117453,0.992728,-0.026384,0.000000,0.000000,0.000000,-1,-0.008839,-0.025490,-0.021350,-0.034751,-0.001089,0.010850
"2018-06-07 01:58:37.683 +0000",1528336717.683192,1.349849,-1.450476,1.348337,0.117111,0.992770,-0.026305,0.000000,0.000000,0.000000,-1,-0.014017,-0.025464,-0.031019,-0.037674,-0.001910,0.007491
"2018-06-07 01:58:37.693 +0000",1528336717.693264,1.350422,-1.450904,1.349203,0.116711,0.992822,-0.026145,0.000000,0.000000,0.000000,-1,-0.022400,-0.028771,-0.033160,-0.035947,-0.005257,0.002173
"2018-06-07 01:58:37.703 +0000",1528336717.703339,1.351289,-1.451391,1.350420,0.116263,0.992880,-0.025939,0.000000,0.000000,0.000000,-1,-0.025522,-0.033157,-0.036393,-0.030524,-0.006674,-0.003099
"2018-06-07 01:58:37.713 +0000",1528336717.713412,1.352467,-1.451967,1.351993,0.115734,0.992948,-0.025678,0.000000,0.000000,0.000000,-1,-0.028651,-0.038646,-0.038553,-0.023281,-0.006162,-0.005374
"2018-06-07 01:58:37.723 +0000",1528336717.723485,1.354146,-1.452607,1.354068,0.115157,0.993024,-0.025347,0.000000,0.000000,0.000000,-1,-0.032861,-0.038662,-0.037468,-0.012481,-0.004407,-0.007948
"2018-06-07 01:58:37.734 +0000",1528336717.733559,1.356184,-1.453321,1.356469,0.114517,0.993108,-0.024961,0.000000,0.000000,0.000000,-1,-0.034958,-0.033175,-0.038523,-0.003860,-0.003423,-0.011279
"2018-06-07 01:58:37.744 +0000",1528336717.743633,1.358650,-1.454053,1.359242,0.113868,0.993193,-0.024526,0.000000,0.000000,0.000000,-1,-0.037130,-0.027728,-0.029897,0.003457,-0.004057,-0.014995
"2018-06-07 01:58:37.754 +0000",1528336717.753706,1.361467,-1.454719,1.362278,0.113289,0.993271,-0.024067,0.000000,0.000000,0.000000,-1,-0.037213,-0.018987,-0.020190,0.010795,-0.005462,-0.021160
"2018-06-07 01:58:37.764 +0000",1528336717.763780,1.363835,-1.455344,1.364853,0.112739,0.993343,-0.023672,0.000000,0.000000,0.000000,-1,-0.034088,-0.017894,-0.016967,0.015404,-0.004176,-0.028452
"2018-06-07 01:58:37.774 +0000",1528336717.773853,1.365170,-1.455826,1.366444,0.112301,0.993398,-0.023423,0.000000,0.000000,0.000000,-1,-0.025752,-0.025595,-0.007328,0.017353,-0.001989,-0.033218
"2018-06-07 01:58:37.784 +0000",1528336717.783926,1.365529,-1.456129,1.367195,0.112014,0.993433,-0.023321,0.000000,0.000000,0.000000,-1,-0.020558,-0.043186,0.002290,0.016694,0.001471,-0.034616
"2018-06-07 01:58:37.794 +0000",1528336717.794000,1.365534,-1.456288,1.367787,0.111861,0.993451,-0.023289,0.000000,0.000000,0.000000,-1,-0.017447,-0.060773,0.009761,0.014101,0.004077,-0.033703
"2018-06-07 01:58:37.804 +0000",1528336717.804073,1.364913,-1.456266,1.367943,0.111868,0.993449,-0.023363,0.000000,0.000000,0.000000,-1,-0.012218,-0.080540,0.015070,0.011179,0.004644,-0.035643
"2018-06-07 01:58:37.814 +0000",1528336717.814147,1.363564,-1.456094,1.367551,0.112002,0.993429,-0.023549,0.000000,0.000000,0.000000,-1,-0.003822,-0.099192,0.018223,0.007566,0.003977,-0.035854
"2018-06-07 01:58:37.824 +0000",1528336717.824220,1.361296,-1.455783,1.366392,0.112250,0.993393,-0.023867,0.000000,0.000000,0.000000,-1,0.003513,-0.114558,0.022464,0.003626,0.001968,-0.035139
"2018-06-07 01:58:37.834 +0000",1528336717.834294,1.358041,-1.455341,1.364349,0.112600,0.993342,-0.024324,0.000000,0.000000,0.000000,-1,0.010838,-0.120045,0.026734,-0.000768,-0.000453,-0.033171
"2018-06-07 01:58:37.844 +0000",1528336717.844367,1.353681,-1.454802,1.361250,0.113014,0.993280,-0.024930,0.000000,0.000000,0.000000,-1,0.019229,-0.125519,0.028850,-0.005699,-0.001917,-0.030398
"2018-06-07 01:58:37.854 +0000",1528336717.854441,1.348569,-1.454190,1.357365,0.113478,0.993209,-0.025641,0.000000,0.000000,0.000000,-1,0.026543,-0.120028,0.033152,-0.009718,-0.003738,-0.026040
"2018-06-07 01:58:37.865 +0000",1528336717.864514,1.343234,-1.453564,1.353132,0.113945,0.993136,-0.026387,0.000000,0.000000,0.000000,-1,0.029663,-0.104660,0.035341,-0.016365,-0.003787,-0.019634
"2018-06-07 01:58:37.875 +0000",1528336717.874588,1.337900,-1.452971,1.348737,0.114373,0.993067,-0.027129,0.000000,0.000000,0.000000,-1,0.032798,-0.088184,0.035382,-0.024087,-0.001154,-0.013551
"2018-06-07 01:58:37.885 +0000",1528336717.884661,1.332759,-1.452413,1.344377,0.114771,0.993001,-0.027848,0.000000,0.000000,0.000000,-1,0.030699,-0.072813,0.033280,-0.031427,0.002238,-0.006759
"2018-06-07 01:58:37.895 +0000",1528336717.894735,1.327259,-1.451917,1.339605,0.115094,0.992942,-0.028597,0.000000,0.000000,0.000000,-1,0.037025,-0.071684,0.030042,-0.036969,0.004876,-0.001249
"2018-06-07 01:58:37.905 +0000",1528336717.904808,1.321501,-1.451497,1.334584,0.115331,0.992892,-0.029362,0.000000,0.000000,0.000000,-1,0.038127,-0.073849,0.023579,-0.040731,0.004193,0.003727
"2018-06-07 01:58:37.915 +0000",1528336717.914881,1.315626,-1.451174,1.329532,0.115467,0.992854,-0.030120,0.000000,0.000000,0.000000,-1,0.039228,-0.083703,0.018170,-0.039768,0.000585,0.007690
"2018-06-07 01:58:37.925 +0000",1528336717.924954,1.309943,-1.450948,1.324676,0.115511,0.992827,-0.030834,0.000000,0.000000,0.000000,-1,0.037158,-0.081496,0.013878,-0.036959,-0.004500,0.014614
"2018-06-07 01:58:37.935 +0000",1528336717.935028,1.304959,-1.450801,1.320476,0.115499,0.992809,-0.031448,0.000000,0.000000,0.000000,-1,0.029817,-0.076018,0.011760,-0.033468,-0.008602,0.022140
"2018-06-07 01:58:37.945 +0000",1528336717.945102,1.301370,-1.450808,1.317582,0.115379,0.992810,-0.031861,0.000000,0.000000,0.000000,-1,0.015152,-0.066152,0.005368,-0.028175,-0.007642,0.028366
"2018-06-07 01:58:37.955 +0000",1528336717.955174,1.299502,-1.450983,1.316284,0.115153,0.992831,-0.032030,0.000000,0.000000,0.000000,-1,-0.000601,-0.051916,0.003294,-0.023203,-0.002413,0.032961
"2018-06-07 01:58:37.965 +0000",1528336717.965249,1.299196,-1.451271,1.316465,0.114867,0.992865,-0.031988,0.000000,0.000000,0.000000,-1,-0.016372,-0.044281,0.004428,-0.018035,0.000696,0.032507
"2018-06-07 01:58:37.975 +0000",1528336717.975322,1.300247,-1.451619,1.317904,0.114568,0.992907,-0.031775,0.000000,0.000000,0.000000,-1,-0.026902,-0.033341,0.006636,-0.015844,-0.004549,0.027610
"2018-06-07 01:58:37.985 +0000",1528336717.985395,1.301917,-1.451963,1.319774,0.114293,0.992948,-0.031494,0.000000,0.000000,0.000000,-1,-0.024862,-0.013599,0.012067,-0.012654,-0.009137,0.020553
"2018-06-07 01:58:37.995 +0000",1528336717.995469,1.303713,-1.452209,1.321505,0.114115,0.992977,-0.031224,0.000000,0.000000,0.000000,-1,-0.015479,0.016045,0.017510,-0.012903,-0.009884,0.013173
"2018-06-07 01:58:38.006 +0000",1528336718.005543,1.305910,-1.452396,1.323277,0.114004,0.992999,-0.030925,0.000000,0.000000,0.000000,-1,-0.010271,0.052281,0.018679,-0.017980,-0.004626,0.014262
"2018-06-07 01:58:38.016 +0000",1528336718.015615,1.308697,-1.452592,1.325356,0.113902,0.993022,-0.030557,0.000000,0.000000,0.000000,-1,-0.010261,0.076449,0.014446,-0.026882,0.002858,0.013497
"2018-06-07 01:58:38.026 +0000",1528336718.025689,1.312182,-1.452795,1.327964,0.113813,0.993046,-0.030108,0.000000,0.000000,0.000000,-1,-0.012333,0.089639,0.009111,-0.033918,0.007702,0.009127
"2018-06-07 01:58:38.036 +0000",1528336718.035763,1.316067,-1.453035,1.330970,0.113698,0.993074,-0.029605,0.000000,0.000000,0.000000,-1,-0.013348,0.087459,0.004805,-0.035497,0.008864,-0.000378
"2018-06-07 01:58:38.046 +0000",1528336718.045835,1.319195,-1.453246,1.333257,0.113587,0.993099,-0.029197,0.000000,0.000000,0.000000,-1,-0.002798,0.082022,-0.000614,-0.033463,0.009327,-0.012688
"2018-06-07 01:58:38.056 +0000",1528336718.055910,1.320702,-1.453453,1.333949,0.113433,0.993123,-0.028976,0.000000,0.000000,0.000000,-1,0.014061,0.077705,-0.007119,-0.026366,0.006373,-0.020066
"2018-06-07 01:58:38.066 +0000",1528336718.065983,1.319996,-1.453582,1.332451,0.113287,0.993138,-0.029024,0.000000,0.000000,0.000000,-1,0.032971,0.074465,-0.007170,-0.015356,0.004603,-0.020827
"2018-06-07 01:58:38.076 +0000",1528336718.076056,1.317360,-1.453695,1.329006,0.113103,0.993151,-0.029294,0.000000,0.000000,0.000000,-1,0.049832,0.076739,-0.014732,-0.004353,0.000577,-0.013324
"2018-06-07 01:58:38.086 +0000",1528336718.086130,1.314094,-1.453835,1.324819,0.112871,0.993168,-0.029628,0.000000,0.000000,0.000000,-1,0.053997,0.088813,-0.011479,0.004926,-0.002796,-0.002370
"2018-06-07 01:58:38.096 +0000",1528336718.096204,1.310880,-1.454052,1.320587,0.112567,0.993193,-0.029935,0.000000,0.000000,0.000000,-1,0.051882,0.103078,-0.011433,0.010145,-0.004286,0.006360
"2018-06-07 01:58:38.106 +0000",1528336718.106277,1.308162,-1.454325,1.316700,0.112222,0.993225,-0.030170,0.000000,0.000000,0.000000,-1,0.041364,0.118417,-0.011364,0.010658,-0.003860,0.012592
"2018-06-07 01:58:38.116 +0000",1528336718.116351,1.306169,-1.454581,1.313428,0.111915,0.993255,-0.030327,0.000000,0.000000,0.000000,-1,0.028709,0.128239,-0.005929,0.008798,-0.006774,0.011650
"2018-06-07 01:58:38.126 +0000",1528336718.126424,1.304025,-1.454783,1.310004,0.111655,0.993278,-0.030514,0.000000,0.000000,0.000000,-1,0.022383,0.127110,-0.002690,0.008492,-0.010383,0.006069
"2018-06-07 01:58:38.136 +0000",1528336718.136497,1.301864,-1.454905,1.306634,0.111471,0.993292,-0.030722,0.000000,0.000000,0.000000,-1,0.020283,0.118318,-0.001636,0.007944,-0.011328,0.001441
"2018-06-07 01:58:38.147 +0000",1528336718.146571,1.299784,-1.454925,1.303366,0.111387,0.993294,-0.030949,0.000000,0.000000,0.000000,-1,0.020268,0.116113,0.000509,0.006853,-0.009225,0.002827
"2018-06-07 01:58:38.157 +0000",1528336718.156644,1.298666,-1.454894,1.301068,0.111381,0.993291,-0.031081,0.000000,0.000000,0.000000,-1,0.018183,0.117214,-0.001634,0.005699,-0.006810,0.006957
"2018-06-07 01:58:38.167 +0000",1528336718.166718,1.298823,-1.454844,1.300076,0.111431,0.993285,-0.031076,0.000000,0.000000,0.000000,-1,0.009794,0.111706,-0.002706,0.002918,-0.004119,0.010553
"2018-06-07 01:58:38.177 +0000",1528336718.176791,1.300039,-1.454825,1.300208,0.111486,0.993283,-0.030945,0.000000,0.000000,0.000000,-1,0.001430,0.105115,-0.007009,0.001536,-0.003979,0.009247
"2018-06-07 01:58:38.187 +0000",1528336718.186865,1.302285,-1.454866,1.301450,0.111515,0.993288,-0.030684,0.000000,0.000000,0.000000,-1,-0.005897,0.096321,-0.009169,0.001293,-0.005663,0.003172
"2018-06-07 01:58:38.197 +0000",1528336718.196938,1.304289,-1.454947,1.302546,0.111500,0.993297,-0.030440,0.000000,0.000000,0.000000,-1,-0.004813,0.087556,-0.012424,0.002605,-0.007198,-0.004518
"2018-06-07 01:58:38.207 +0000",1528336718.207012,1.305415,-1.455047,1.302794,0.111439,0.993309,-0.030288,0.000000,0.000000,0.000000,-1,-0.000576,0.084292,-0.016746,0.006466,-0.007698,-0.009110
"2018-06-07 01:58:38.217 +0000",1528336718.217084,1.305847,-1.455130,1.302361,0.111373,0.993318,-0.030219,0.000000,0.000000,0.000000,-1,0.003626,0.084304,-0.016755,0.008943,-0.008485,-0.011316
"2018-06-07 01:58:38.227 +0000",1528336718.227159,1.305947,-1.455226,1.301598,0.111285,0.993329,-0.030183,0.000000,0.000000,0.000000,-1,0.007827,0.084316,-0.016765,0.013089,-0.008344,-0.009383
"2018-06-07 01:58:38.237 +0000",1528336718.237232,1.306394,-1.455342,1.301147,0.111188,0.993343,-0.030103,0.000000,0.000000,0.000000,-1,0.006764,0.088699,-0.015674,0.014636,-0.004390,-0.004931
"2018-06-07 01:58:38.247 +0000",1528336718.247306,1.307414,-1.455502,1.301210,0.111066,0.993361,-0.029948,0.000000,0.000000,0.000000,-1,0.002565,0.095278,-0.016721,0.016040,-0.002211,-0.001637
"2018-06-07 01:58:38.257 +0000",1528336718.257379,1.308477,-1.455652,1.301352,0.110954,0.993378,-0.029792,0.000000,0.000000,0.000000,-1,-0.000600,0.091967,-0.014572,0.015984,-0.002884,-0.003350
"2018-06-07 01:58:38.267 +0000",1528336718.267453,1.309076,-1.455760,1.301053,0.110869,0.993391,-0.029698,0.000000,0.000000,0.000000,-1,0.003598,0.087584,-0.013519,0.012895,-0.005415,-0.005092
"2018-06-07 01:58:38.278 +0000",1528336718.277525,1.308995,-1.455819,1.300132,0.110810,0.993397,-0.029692,0.000000,0.000000,0.000000,-1,0.007772,0.080991,-0.009245,0.009719,-0.005665,-0.006853
"2018-06-07 01:58:38.288 +0000",1528336718.287599,1.308516,-1.455828,1.298852,0.110787,0.993398,-0.029742,0.000000,0.000000,0.000000,-1,0.006742,0.077703,-0.011404,0.004600,-0.002752,-0.007413
"2018-06-07 01:58:38.298 +0000",1528336718.297673,1.307729,-1.455817,1.297300,0.110776,0.993397,-0.029833,0.000000,0.000000,0.000000,-1,0.008846,0.074416,-0.011418,0.000049,-0.000599,-0.005629
"2018-06-07 01:58:38.308 +0000",1528336718.307745,1.307116,-1.455795,1.295962,0.110780,0.993395,-0.029907,0.000000,0.000000,0.000000,-1,0.007806,0.072222,-0.012498,-0.004549,-0.000109,-0.004456
"2018-06-07 01:58:38.318 +0000",1528336718.317820,1.306768,-1.455815,1.294919,0.110752,0.993397,-0.029941,0.000000,0.000000,0.000000,-1,0.008885,0.067848,-0.015740,-0.006855,-0.001972,-0.005078
"2018-06-07 01:58:38.328 +0000",1528336718.327893,1.305959,-1.455838,1.293470,0.110707,0.993400,-0.030025,0.000000,0.000000,0.000000,-1,0.015211,0.060190,-0.017928,-0.006367,-0.004813,-0.005895
"2018-06-07 01:58:38.338 +0000",1528336718.337966,1.304639,-1.455873,1.291512,0.110633,0.993404,-0.030161,0.000000,0.000000,0.000000,-1,0.018377,0.062403,-0.020080,-0.004768,-0.007182,-0.004766
"2018-06-07 01:58:38.348 +0000",1528336718.348040,1.303273,-1.455920,1.289478,0.110547,0.993409,-0.030300,0.000000,0.000000,0.000000,-1,0.017322,0.066791,-0.020065,-0.003216,-0.006593,-0.000034
"2018-06-07 01:58:38.358 +0000",1528336718.358114,1.301969,-1.456008,1.287484,0.110423,0.993419,-0.030421,0.000000,0.000000,0.000000,-1,0.014180,0.065689,-0.021136,-0.004908,-0.007274,0.004786
"2018-06-07 01:58:38.368 +0000",1528336718.368186,1.301190,-1.456152,1.286050,0.110262,0.993436,-0.030469,0.000000,0.000000,0.000000,-1,0.005796,0.063480,-0.023275,-0.005449,-0.007596,0.006070
"2018-06-07 01:58:38.378 +0000",1528336718.378260,1.300768,-1.456373,1.285013,0.110037,0.993461,-0.030457,0.000000,0.000000,0.000000,-1,-0.000492,0.057978,-0.024352,-0.005056,-0.005622,0.005722
"2018-06-07 01:58:38.388 +0000",1528336718.388334,1.300521,-1.456661,1.284213,0.109753,0.993494,-0.030408,0.000000,0.000000,0.000000,-1,-0.002555,0.052501,-0.028666,-0.005917,-0.005685,0.005139
"2018-06-07 01:58:38.398 +0000",1528336718.398407,1.300940,-1.456991,1.284135,0.109451,0.993531,-0.030274,0.000000,0.000000,0.000000,-1,-0.014113,0.048073,-0.027577,-0.004806,-0.007371,0.006913
"2018-06-07 01:58:38.408 +0000",1528336718.408481,1.302101,-1.457363,1.284799,0.109129,0.993573,-0.030049,0.000000,0.000000,0.000000,-1,-0.023542,0.049158,-0.030779,-0.004316,-0.009687,0.005955
"2018-06-07 01:58:38.419 +0000",1528336718.418554,1.304585,-1.457744,1.286756,0.108838,0.993616,-0.029678,0.000000,0.000000,0.000000,-1,-0.035111,0.055708,-0.029658,-0.004056,-0.013789,0.000565
"2018-06-07 01:58:38.429 +0000",1528336718.428627,1.307292,-1.458171,1.288966,0.108509,0.993664,-0.029273,0.000000,0.000000,0.000000,-1,-0.036112,0.048044,-0.035056,-0.004551,-0.016171,-0.006829
"2018-06-07 01:58:38.439 +0000",1528336718.438701,1.310052,-1.458675,1.291304,0.108104,0.993721,-0.028844,0.000000,0.000000,0.000000,-1,-0.036064,0.040382,-0.040457,-0.005321,-0.015953,-0.010111
"2018-06-07 01:58:38.449 +0000",1528336718.448775,1.312902,-1.459256,1.293871,0.107629,0.993786,-0.028389,0.000000,0.000000,0.000000,-1,-0.041235,0.026133,-0.049091,-0.005746,-0.014019,-0.013222
"2018-06-07 01:58:38.459 +0000",1528336718.458848,1.316058,-1.459905,1.296887,0.107093,0.993858,-0.027886,0.000000,0.000000,0.000000,-1,-0.047483,0.012965,-0.054493,-0.003302,-0.010368,-0.014075
"2018-06-07 01:58:38.469 +0000",1528336718.468922,1.319182,-1.460604,1.299958,0.106507,0.993935,-0.027379,0.000000,0.000000,0.000000,-1,-0.048504,0.007487,-0.057734,0.000548,-0.007088,-0.015635
"2018-06-07 01:58:38.479 +0000",1528336718.478995,1.321900,-1.461272,1.302614,0.105937,0.994008,-0.026926,0.000000,0.000000,0.000000,-1,-0.040108,0.006408,-0.056681,0.003926,-0.002355,-0.016470
"2018-06-07 01:58:38.489 +0000",1528336718.489068,1.323844,-1.461905,1.304459,0.105379,0.994077,-0.026566,0.000000,0.000000,0.000000,-1,-0.031728,0.013009,-0.054529,0.006010,0.000369,-0.012909
"2018-06-07 01:58:38.499 +0000",1528336718.499142,1.325160,-1.462472,1.305597,0.104867,0.994139,-0.026290,0.000000,0.000000,0.000000,-1,-0.025465,0.019595,-0.050222,0.005652,0.000017,-0.009080
"2018-06-07 01:58:38.509 +0000",1528336718.509215,1.325828,-1.462958,1.306044,0.104415,0.994191,-0.026103,0.000000,0.000000,0.000000,-1,-0.021301,0.023979,-0.045916,0.002290,-0.001408,-0.005117
"2018-06-07 01:58:38.519 +0000",1528336718.519289,1.326552,-1.463438,1.306443,0.103971,0.994243,-0.025912,0.000000,0.000000,0.000000,-1,-0.022363,0.036052,-0.045879,-0.004743,0.000737,-0.001051
"2018-06-07 01:58:38.529 +0000",1528336718.529362,1.326934,-1.463962,1.306478,0.103476,0.994299,-0.025746,0.000000,0.000000,0.000000,-1,-0.023362,0.033880,-0.052337,-0.011099,0.002039,-0.001582
"2018-06-07 01:58:38.539 +0000",1528336718.539436,1.326813,-1.464475,1.306162,0.102978,0.994353,-0.025636,0.000000,0.000000,0.000000,-1,-0.018101,0.015229,-0.051327,-0.012859,-0.001037,-0.002288
"2018-06-07 01:58:38.550 +0000",1528336718.549509,1.326305,-1.464975,1.305668,0.102483,0.994406,-0.025568,0.000000,0.000000,0.000000,-1,-0.018080,-0.005629,-0.051388,-0.008565,-0.002997,-0.000296
"2018-06-07 01:58:38.560 +0000",1528336718.559583,1.325737,-1.465453,1.305209,0.102008,0.994457,-0.025511,0.000000,0.000000,0.000000,-1,-0.018082,-0.012220,-0.050332,-0.004626,-0.004421,0.006437
"2018-06-07 01:58:38.570 +0000",1528336718.569655,1.326249,-1.465897,1.305794,0.101592,0.994503,-0.025351,0.000000,0.000000,0.000000,-1,-0.027576,-0.004580,-0.045985,-0.001647,-0.004681,0.012168
"2018-06-07 01:58:38.580 +0000",1528336718.579730,1.328009,-1.466313,1.307577,0.101234,0.994547,-0.025073,0.000000,0.000000,0.000000,-1,-0.037094,0.003046,-0.038411,-0.000831,-0.006311,0.013568
"2018-06-07 01:58:38.590 +0000",1528336718.589803,1.330943,-1.466734,1.310438,0.100903,0.994590,-0.024677,0.000000,0.000000,0.000000,-1,-0.045530,0.011791,-0.035140,0.000980,-0.005516,0.009204
"2018-06-07 01:58:38.600 +0000",1528336718.599875,1.334316,-1.467158,1.313639,0.100573,0.994634,-0.024237,0.000000,0.000000,0.000000,-1,-0.043472,0.021659,-0.030813,0.003110,-0.003271,0.005515
"2018-06-07 01:58:38.610 +0000",1528336718.609950,1.337535,-1.467545,1.316654,0.100276,0.994674,-0.023824,0.000000,0.000000,0.000000,-1,-0.040373,0.023836,-0.024360,0.004750,-0.004791,0.002859
"2018-06-07 01:58:38.620 +0000",1528336718.620023,1.340609,-1.467898,1.319501,0.100007,0.994711,-0.023436,0.000000,0.000000,0.000000,-1,-0.038299,0.026024,-0.021132,0.004027,-0.007650,0.002348
"2018-06-07 01:58:38.630 +0000",1528336718.630096,1.344186,-1.468207,1.322825,0.099791,0.994742,-0.023009,0.000000,0.000000,0.000000,-1,-0.042519,0.028199,-0.018964,-0.000044,-0.010428,0.003401
"2018-06-07 01:58:38.640 +0000",1528336718.640170,1.348858,-1.468510,1.327184,0.099603,0.994773,-0.022476,0.000000,0.000000,0.000000,-1,-0.050938,0.035855,-0.017847,-0.005701,-0.010276,0.004440
"2018-06-07 01:58:38.650 +0000",1528336718.650244,1.354486,-1.468843,1.332495,0.099405,0.994807,-0.021844,0.000000,0.000000,0.000000,-1,-0.055097,0.034768,-0.023219,-0.010309,-0.008250,0.003625
"2018-06-07 01:58:38.660 +0000",1528336718.660316,1.360496,-1.469204,1.338251,0.099183,0.994844,-0.021171,0.000000,0.000000,0.000000,-1,-0.059280,0.024881,-0.024314,-0.012101,-0.004457,-0.000588
"2018-06-07 01:58:38.670 +0000",1528336718.670391,1.366237,-1.469555,1.343850,0.098961,0.994879,-0.020531,0.000000,0.000000,0.000000,-1,-0.059270,0.013903,-0.024346,-0.012063,0.000528,-0.006340
"2018-06-07 01:58:38.680 +0000",1528336718.680464,1.371384,-1.469893,1.348964,0.098736,0.994914,-0.019954,0.000000,0.000000,0.000000,-1,-0.053976,0.005154,-0.028686,-0.010373,0.005727,-0.009510
"2018-06-07 01:58:38.691 +0000",1528336718.690537,1.376097,-1.470216,1.353705,0.098514,0.994946,-0.019427,0.000000,0.000000,0.000000,-1,-0.052944,-0.001443,-0.025480,-0.006977,0.008182,-0.011808
"2018-06-07 01:58:38.701 +0000",1528336718.700611,1.380291,-1.470512,1.357946,0.098305,0.994976,-0.018957,0.000000,0.000000,0.000000,-1,-0.045609,-0.000334,-0.023343,-0.004158,0.006230,-0.015405
"2018-06-07 01:58:38.711 +0000",1528336718.710684,1.384065,-1.470798,1.361698,0.098097,0.995004,-0.018534,0.000000,0.000000,0.000000,-1,-0.040389,0.006254,-0.020109,0.000231,0.003729,-0.018530
"2018-06-07 01:58:38.721 +0000",1528336718.720757,1.386937,-1.471039,1.364433,0.097914,0.995028,-0.018208,0.000000,0.000000,0.000000,-1,-0.026787,0.018345,-0.014726,0.003008,0.003720,-0.023327
"2018-06-07 01:58:38.731 +0000",1528336718.730831,1.388766,-1.471248,1.366086,0.097742,0.995049,-0.017991,0.000000,0.000000,0.000000,-1,-0.017351,0.018362,-0.012597,0.004232,0.004386,-0.025817
"2018-06-07 01:58:38.741 +0000",1528336718.740905,1.389320,-1.471392,1.366476,0.097612,0.995063,-0.017911,0.000000,0.000000,0.000000,-1,-0.005836,0.016176,-0.007251,0.005522,0.003777,-0.026782
"2018-06-07 01:58:38.751 +0000",1528336718.750978,1.388744,-1.471473,1.365784,0.097521,0.995072,-0.017953,0.000000,0.000000,0.000000,-1,0.000430,0.010682,-0.001903,0.006742,0.003158,-0.027167
"2018-06-07 01:58:38.761 +0000",1528336718.761052,1.387449,-1.471490,1.364376,0.097479,0.995073,-0.018076,0.000000,0.000000,0.000000,-1,0.009851,0.009593,0.002375,0.007669,0.002730,-0.028037
"2018-06-07 01:58:38.771 +0000",1528336718.771125,1.385415,-1.471429,1.362231,0.097502,0.995067,-0.018285,0.000000,0.000000,0.000000,-1,0.016113,0.008490,0.007735,0.008593,0.001927,-0.025904
"2018-06-07 01:58:38.781 +0000",1528336718.781199,1.382800,-1.471298,1.359525,0.097581,0.995054,-0.018564,0.000000,0.000000,0.000000,-1,0.021339,0.009589,0.010953,0.010130,0.002062,-0.025061
"2018-06-07 01:58:38.791 +0000",1528336718.791272,1.379308,-1.471097,1.355912,0.097711,0.995034,-0.018943,0.000000,0.000000,0.000000,-1,0.031817,0.010702,0.014160,0.010107,0.004050,-0.021981
"2018-06-07 01:58:38.801 +0000",1528336718.801346,1.374577,-1.470827,1.351060,0.097886,0.995007,-0.019457,0.000000,0.000000,0.000000,-1,0.042304,0.010722,0.016287,0.011047,0.003208,-0.016034
"2018-06-07 01:58:38.811 +0000",1528336718.811419,1.369447,-1.470481,1.345819,0.098124,0.994973,-0.020028,0.000000,0.000000,0.000000,-1,0.045407,0.009606,0.022730,0.009787,-0.000084,-0.007147
"2018-06-07 01:58:38.821 +0000",1528336718.821492,1.364309,-1.470062,1.340481,0.098427,0.994931,-0.020618,0.000000,0.000000,0.000000,-1,0.047445,0.022758,0.029218,0.005775,-0.002163,0.000522
"2018-06-07 01:58:38.832 +0000",1528336718.831566,1.359217,-1.469612,1.335055,0.098760,0.994885,-0.021213,0.000000,0.000000,0.000000,-1,0.049527,0.033737,0.030321,-0.002111,-0.003003,0.008945
"2018-06-07 01:58:38.842 +0000",1528336718.841639,1.354743,-1.469132,1.330145,0.099131,0.994837,-0.021757,0.000000,0.000000,0.000000,-1,0.043189,0.044683,0.033594,-0.011637,-0.004312,0.013289
"2018-06-07 01:58:38.852 +0000",1528336718.851713,1.350726,-1.468664,1.325638,0.099496,0.994789,-0.022257,0.000000,0.000000,0.000000,-1,0.043195,0.046883,0.032525,-0.020624,-0.004539,0.016321
"2018-06-07 01:58:38.862 +0000",1528336718.861785,1.347266,-1.468240,1.321661,0.099831,0.994746,-0.022694,0.000000,0.000000,0.000000,-1,0.035888,0.051281,0.026100,-0.028343,-0.001093,0.020451
"2018-06-07 01:58:38.872 +0000",1528336718.871860,1.344430,-1.467886,1.318298,0.100110,0.994709,-0.023057,0.000000,0.000000,0.000000,-1,0.028560,0.051274,0.022890,-0.032864,0.000499,0.021455
"2018-06-07 01:58:38.882 +0000",1528336718.881933,1.342723,-1.467636,1.316152,0.100311,0.994684,-0.023283,0.000000,0.000000,0.000000,-1,0.018134,0.040303,0.014277,-0.032317,-0.001779,0.020247
"2018-06-07 01:58:38.892 +0000",1528336718.892007,1.341886,-1.467499,1.314970,0.100424,0.994670,-0.023398,0.000000,0.000000,0.000000,-1,0.011913,0.032642,0.004588,-0.026572,-0.006205,0.015601
"2018-06-07 01:58:38.902 +0000",1528336718.902080,1.341531,-1.467429,1.314297,0.100481,0.994662,-0.023449,0.000000,0.000000,0.000000,-1,0.010889,0.031555,0.001360,-0.017458,-0.008609,0.012112
"2018-06-07 01:58:38.912 +0000",1528336718.912154,1.341379,-1.467439,1.313791,0.100469,0.994663,-0.023462,0.000000,0.000000,0.000000,-1,0.010902,0.034857,-0.000781,-0.007817,-0.010014,0.009089
"2018-06-07 01:58:38.922 +0000",1528336718.922226,1.341614,-1.467512,1.313635,0.100402,0.994671,-0.023422,0.000000,0.000000,0.000000,-1,0.006706,0.038144,-0.001838,0.000337,-0.008343,0.006958
"2018-06-07 01:58:38.932 +0000",1528336718.932300,1.341820,-1.467607,1.313450,0.100314,0.994681,-0.023380,0.000000,0.000000,0.000000,-1,0.007740,0.038137,0.000311,0.006406,-0.006705,0.005344
"2018-06-07 01:58:38.942 +0000",1528336718.942374,1.342389,-1.467721,1.313617,0.100217,0.994692,-0.023297,0.000000,0.000000,0.000000,-1,0.005612,0.040314,0.003549,0.010425,-0.008196,0.005200
"2018-06-07 01:58:38.952 +0000",1528336718.952446,1.343273,-1.467835,1.314075,0.100127,0.994704,-0.023183,0.000000,0.000000,0.000000,-1,0.002416,0.043575,0.008944,0.011979,-0.009063,0.004216
"2018-06-07 01:58:38.963 +0000",1528336718.962521,1.344742,-1.467904,1.315082,0.100092,0.994711,-0.023020,0.000000,0.000000,0.000000,-1,-0.001830,0.047932,0.014345,0.010702,-0.008566,0.001093
"2018-06-07 01:58:38.973 +0000",1528336718.972594,1.346102,-1.467910,1.315887,0.100118,0.994712,-0.022882,0.000000,0.000000,0.000000,-1,0.000263,0.055622,0.014363,0.008509,-0.007239,-0.002188
"2018-06-07 01:58:38.983 +0000",1528336718.982667,1.347328,-1.467860,1.316580,0.100195,0.994707,-0.022771,0.000000,0.000000,0.000000,-1,0.000260,0.050129,0.015422,0.006189,-0.007021,-0.006099
"2018-06-07 01:58:38.993 +0000",1528336718.992741,1.348372,-1.467755,1.317186,0.100322,0.994696,-0.022689,0.000000,0.000000,0.000000,-1,0.000267,0.042445,0.015400,0.004232,-0.003729,-0.007035
"2018-06-07 01:58:39.003 +0000",1528336719.002815,1.349279,-1.467616,1.317753,0.100478,0.994682,-0.022629,0.000000,0.000000,0.000000,-1,0.001337,0.031474,0.014290,0.003465,-0.000221,-0.009201
"2018-06-07 01:58:39.013 +0000",1528336719.012887,1.350455,-1.467462,1.318686,0.100654,0.994666,-0.022544,0.000000,0.000000,0.000000,-1,-0.004947,0.020484,0.013197,0.001290,0.004083,-0.007989
"2018-06-07 01:58:39.023 +0000",1528336719.022961,1.351764,-1.467310,1.319858,0.100829,0.994650,-0.022445,0.000000,0.000000,0.000000,-1,-0.005973,0.012806,0.011025,-0.000076,0.003900,-0.010041
"2018-06-07 01:58:39.033 +0000",1528336719.033035,1.352655,-1.467153,1.320733,0.101003,0.994634,-0.022389,0.000000,0.000000,0.000000,-1,-0.002809,-0.000359,0.010980,-0.001530,-0.000859,-0.014812
"2018-06-07 01:58:39.043 +0000",1528336719.043108,1.352442,-1.467010,1.320648,0.101137,0.994619,-0.022442,0.000000,0.000000,0.000000,-1,0.007726,-0.015689,0.008760,-0.000460,-0.004186,-0.018055
"2018-06-07 01:58:39.053 +0000",1528336719.053182,1.350739,-1.466859,1.319190,0.101247,0.994603,-0.022647,0.000000,0.000000,0.000000,-1,0.018256,-0.026628,0.006553,0.001354,-0.004873,-0.015058
"2018-06-07 01:58:39.063 +0000",1528336719.063255,1.348491,-1.466702,1.317268,0.101348,0.994587,-0.022909,0.000000,0.000000,0.000000,-1,0.020357,-0.035409,0.007598,0.002153,-0.004536,-0.008494
"2018-06-07 01:58:39.073 +0000",1528336719.073328,1.346369,-1.466556,1.315569,0.101441,0.994572,-0.023156,0.000000,0.000000,0.000000,-1,0.015098,-0.044213,0.009736,0.002288,-0.004872,-0.002006
"2018-06-07 01:58:39.083 +0000",1528336719.083402,1.344457,-1.466414,1.314098,0.101534,0.994557,-0.023382,0.000000,0.000000,0.000000,-1,0.013006,-0.045313,0.008662,0.001127,-0.004872,0.001394
"2018-06-07 01:58:39.093 +0000",1528336719.093476,1.342941,-1.466304,1.313047,0.101604,0.994546,-0.023560,0.000000,0.000000,0.000000,-1,0.008807,-0.047520,0.008666,0.001804,-0.004540,0.001328
"2018-06-07 01:58:39.104 +0000",1528336719.103549,1.341446,-1.466197,1.312073,0.101673,0.994534,-0.023736,0.000000,0.000000,0.000000,-1,0.006714,-0.055210,0.008648,0.003216,-0.003705,0.000680
"2018-06-07 01:58:39.114 +0000",1528336719.113623,1.339826,-1.466076,1.311033,0.101752,0.994522,-0.023929,0.000000,0.000000,0.000000,-1,0.008799,-0.056311,0.010791,0.004800,-0.003769,0.000156
"2018-06-07 01:58:39.124 +0000",1528336719.123696,1.337853,-1.465906,1.309655,0.101870,0.994504,-0.024169,0.000000,0.000000,0.000000,-1,0.010876,-0.057416,0.014010,0.004759,-0.005887,0.003295
"2018-06-07 01:58:39.134 +0000",1528336719.133769,1.336518,-1.465692,1.308884,0.102045,0.994482,-0.024354,0.000000,0.000000,0.000000,-1,0.005581,-0.055258,0.019407,0.002676,-0.007528,0.005525
"2018-06-07 01:58:39.144 +0000",1528336719.143843,1.335944,-1.465470,1.308836,0.102246,0.994458,-0.024464,0.000000,0.000000,0.000000,-1,0.001367,-0.050883,0.020505,0.000125,-0.005963,0.009038
"2018-06-07 01:58:39.154 +0000",1528336719.153915,1.336136,-1.465254,1.309517,0.102459,0.994436,-0.024494,0.000000,0.000000,0.000000,-1,-0.002839,-0.046504,0.020527,-0.005657,-0.000814,0.008305
"2018-06-07 01:58:39.164 +0000",1528336719.163990,1.336969,-1.465046,1.310887,0.102681,0.994414,-0.024457,0.000000,0.000000,0.000000,-1,-0.009158,-0.054220,0.023746,-0.012044,0.003542,0.006238
"2018-06-07 01:58:39.174 +0000",1528336719.174063,1.337908,-1.464839,1.312440,0.102903,0.994392,-0.024408,0.000000,0.000000,0.000000,-1,-0.010201,-0.061907,0.023726,-0.015012,0.002358,-0.000266
"2018-06-07 01:58:39.184 +0000",1528336719.184137,1.338415,-1.464585,1.313599,0.103162,0.994365,-0.024414,0.000000,0.000000,0.000000,-1,-0.003922,-0.064098,0.026932,-0.016629,0.001622,-0.003815
"2018-06-07 01:58:39.194 +0000",1528336719.194210,1.338192,-1.464302,1.314073,0.103430,0.994335,-0.024502,0.000000,0.000000,0.000000,-1,0.003436,-0.069567,0.026900,-0.016852,0.003269,-0.004932
"2018-06-07 01:58:39.204 +0000",1528336719.204284,1.337549,-1.464031,1.314134,0.103677,0.994306,-0.024631,0.000000,0.000000,0.000000,-1,0.006605,-0.070646,0.024738,-0.018395,0.004305,-0.002301
"2018-06-07 01:58:39.214 +0000",1528336719.214356,1.337277,-1.463823,1.314552,0.103872,0.994284,-0.024707,0.000000,0.000000,0.000000,-1,0.001384,-0.068447,0.020454,-0.020071,0.000772,0.001239
"2018-06-07 01:58:39.224 +0000",1528336719.224430,1.337376,-1.463637,1.315213,0.104053,0.994264,-0.024739,0.000000,0.000000,0.000000,-1,0.003468,-0.050878,0.020500,-0.020191,-0.004655,-0.000743
"2018-06-07 01:58:39.235 +0000",1528336719.234504,1.337098,-1.463459,1.315278,0.104219,0.994245,-0.024809,0.000000,0.000000,0.000000,-1,0.009740,-0.028909,0.021625,-0.019151,-0.006605,-0.001528
"2018-06-07 01:58:39.245 +0000",1528336719.244576,1.335944,-1.463260,1.314253,0.104383,0.994223,-0.024975,0.000000,0.000000,0.000000,-1,0.018116,-0.009131,0.022739,-0.022230,-0.000800,-0.001346
"2018-06-07 01:58:39.255 +0000",1528336719.254651,1.334216,-1.463048,1.312547,0.104544,0.994201,-0.025205,0.000000,0.000000,0.000000,-1,0.022292,-0.000346,0.024907,-0.027426,0.006928,0.000822
"2018-06-07 01:58:39.265 +0000",1528336719.264724,1.332371,-1.462843,1.310693,0.104694,0.994179,-0.025446,0.000000,0.000000,0.000000,-1,0.022306,0.001858,0.022762,-0.031055,0.009880,0.002619
"2018-06-07 01:58:39.275 +0000",1528336719.274797,1.330744,-1.462621,1.309003,0.104867,0.994155,-0.025669,0.000000,0.000000,0.000000,-1,0.021232,0.009531,0.024938,-0.032113,0.004594,0.003635
"2018-06-07 01:58:39.285 +0000",1528336719.284871,1.329036,-1.462438,1.307090,0.105000,0.994135,-0.025891,0.000000,0.000000,0.000000,-1,0.024412,0.022735,0.019591,-0.031742,-0.002497,0.000684
"2018-06-07 01:58:39.295 +0000",1528336719.294945,1.327318,-1.462318,1.305032,0.105072,0.994122,-0.026101,0.000000,0.000000,0.000000,-1,0.025498,0.037036,0.013176,-0.030518,-0.007061,-0.001609
"2018-06-07 01:58:39.305 +0000",1528336719.305017,1.325828,-1.462273,1.303066,0.105076,0.994117,-0.026268,0.000000,0.000000,0.000000,-1,0.020293,0.048031,0.005690,-0.033985,-0.006584,-0.001290
"2018-06-07 01:58:39.315 +0000",1528336719.315091,1.324627,-1.462302,1.301350,0.105017,0.994120,-0.026387,0.000000,0.000000,0.000000,-1,0.014023,0.049129,0.001405,-0.034994,-0.003794,0.000447
"2018-06-07 01:58:39.325 +0000",1528336719.325165,1.323380,-1.462440,1.299684,0.104850,0.994135,-0.026484,0.000000,0.000000,0.000000,-1,0.014125,0.037103,-0.010462,-0.031150,-0.002512,0.000193
"2018-06-07 01:58:39.335 +0000",1528336719.335238,1.321720,-1.462647,1.297635,0.104607,0.994158,-0.026608,0.000000,0.000000,0.000000,-1,0.019408,0.039332,-0.014770,-0.021950,-0.004213,0.001888
"2018-06-07 01:58:39.345 +0000",1528336719.345312,1.319524,-1.462852,1.294951,0.104352,0.994180,-0.026787,0.000000,0.000000,0.000000,-1,0.027784,0.050324,-0.012606,-0.009870,-0.004983,0.004006
"2018-06-07 01:58:39.355 +0000",1528336719.355385,1.317004,-1.463051,1.291740,0.104092,0.994201,-0.027000,0.000000,0.000000,0.000000,-1,0.033021,0.073396,-0.013627,-0.001599,-0.005264,0.008186
"2018-06-07 01:58:39.365 +0000",1528336719.365458,1.314819,-1.463203,1.288668,0.103888,0.994217,-0.027189,0.000000,0.000000,0.000000,-1,0.027729,0.089834,-0.010340,0.000834,-0.005478,0.015410
"2018-06-07 01:58:39.376 +0000",1528336719.375532,1.313302,-1.463335,1.286141,0.103716,0.994232,-0.027313,0.000000,0.000000,0.000000,-1,0.019288,0.102970,-0.007055,-0.000720,-0.005844,0.019485
"2018-06-07 01:58:39.386 +0000",1528336719.385606,1.312533,-1.463491,1.284334,0.103544,0.994248,-0.027353,0.000000,0.000000,0.000000,-1,0.010870,0.101840,-0.004888,-0.002836,-0.005830,0.020181
"2018-06-07 01:58:39.396 +0000",1528336719.395679,1.312363,-1.463645,1.283218,0.103392,0.994265,-0.027331,0.000000,0.000000,0.000000,-1,0.006672,0.089748,-0.003838,-0.000594,-0.005327,0.017794
"2018-06-07 01:58:39.406 +0000",1528336719.405753,1.312922,-1.463790,1.282974,0.103268,0.994280,-0.027237,0.000000,0.000000,0.000000,-1,-0.001719,0.077649,-0.003854,0.002948,-0.003848,0.015762
"2018-06-07 01:58:39.416 +0000",1528336719.415826,1.313995,-1.463888,1.283368,0.103205,0.994291,-0.027101,0.000000,0.000000,0.000000,-1,-0.005940,0.064446,0.000420,0.006735,-0.002531,0.014452
"2018-06-07 01:58:39.426 +0000",1528336719.425899,1.315755,-1.463959,1.284495,0.103183,0.994298,-0.026902,0.000000,0.000000,0.000000,-1,-0.012233,0.063336,-0.000645,0.009610,-0.003240,0.011109
"2018-06-07 01:58:39.436 +0000",1528336719.435973,1.317919,-1.463988,1.286033,0.103214,0.994301,-0.026671,0.000000,0.000000,0.000000,-1,-0.014358,0.062218,0.002584,0.010861,-0.005822,0.004699
"2018-06-07 01:58:39.446 +0000",1528336719.446046,1.320536,-1.464006,1.287961,0.103266,0.994303,-0.026397,0.000000,0.000000,0.000000,-1,-0.014367,0.072098,0.002613,0.009878,-0.006327,0.000045
"2018-06-07 01:58:39.456 +0000",1528336719.456120,1.323417,-1.464001,1.290037,0.103346,0.994303,-0.026100,0.000000,0.000000,0.000000,-1,-0.013363,0.085256,0.006951,0.007066,-0.007807,-0.004875
"2018-06-07 01:58:39.466 +0000",1528336719.466193,1.325975,-1.463984,1.291699,0.103431,0.994301,-0.025840,0.000000,0.000000,0.000000,-1,-0.008115,0.089662,0.006952,0.002053,-0.007332,-0.008278
"2018-06-07 01:58:39.476 +0000",1528336719.476267,1.327830,-1.463888,1.292622,0.103572,0.994291,-0.025672,0.000000,0.000000,0.000000,-1,0.001301,0.094061,0.011246,-0.003688,-0.006208,-0.013711
"2018-06-07 01:58:39.486 +0000",1528336719.486340,1.328880,-1.463776,1.292780,0.103707,0.994279,-0.025590,0.000000,0.000000,0.000000,-1,0.008677,0.086406,0.009055,-0.006936,-0.003526,-0.016494
"2018-06-07 01:58:39.496 +0000",1528336719.496414,1.328944,-1.463649,1.292052,0.103831,0.994265,-0.025613,0.000000,0.000000,0.000000,-1,0.017117,0.073270,0.005771,-0.007045,-0.000048,-0.016211
"2018-06-07 01:58:39.506 +0000",1528336719.506486,1.328220,-1.463537,1.290654,0.103919,0.994253,-0.025715,0.000000,0.000000,0.000000,-1,0.023456,0.061226,0.002494,-0.006751,0.003137,-0.011532
"2018-06-07 01:58:39.517 +0000",1528336719.516560,1.326949,-1.463465,1.288831,0.103956,0.994246,-0.025864,0.000000,0.000000,0.000000,-1,0.021413,0.052465,-0.003980,-0.003828,0.001818,-0.005157
"2018-06-07 01:58:39.527 +0000",1528336719.526634,1.325797,-1.463400,1.287140,0.103989,0.994238,-0.026000,0.000000,0.000000,0.000000,-1,0.016137,0.052437,-0.000741,-0.000352,-0.000510,-0.000337
"2018-06-07 01:58:39.537 +0000",1528336719.536706,1.324914,-1.463368,1.285711,0.103997,0.994235,-0.026099,0.000000,0.000000,0.000000,-1,0.012999,0.055731,-0.002876,0.001853,-0.002109,0.003104
"2018-06-07 01:58:39.547 +0000",1528336719.546781,1.324152,-1.463352,1.284382,0.103991,0.994233,-0.026182,0.000000,0.000000,0.000000,-1,0.010900,0.054627,-0.002874,0.004422,-0.002199,0.002287
"2018-06-07 01:58:39.557 +0000",1528336719.556854,1.323060,-1.463330,1.282831,0.103983,0.994231,-0.026301,0.000000,0.000000,0.000000,-1,0.009837,0.041437,0.000317,0.009680,-0.002730,0.000864
"2018-06-07 01:58:39.567 +0000",1528336719.566927,1.321811,-1.463259,1.281212,0.104019,0.994223,-0.026448,0.000000,0.000000,0.000000,-1,0.012944,0.035930,0.006748,0.013352,-0.006308,0.003010
"2018-06-07 01:58:39.577 +0000",1528336719.577001,1.320679,-1.463153,1.279705,0.104091,0.994212,-0.026592,0.000000,0.000000,0.000000,-1,0.010807,0.039200,0.011065,0.012089,-0.010020,0.006771
"2018-06-07 01:58:39.587 +0000",1528336719.587075,1.319984,-1.463004,1.278486,0.104216,0.994196,-0.026701,0.000000,0.000000,0.000000,-1,0.010748,0.057839,0.016497,0.009737,-0.008265,0.009047
"2018-06-07 01:58:39.597 +0000",1528336719.597147,1.319755,-1.462820,1.277589,0.104389,0.994176,-0.026771,0.000000,0.000000,0.000000,-1,0.011778,0.069913,0.017606,0.005231,-0.005666,0.010520
"2018-06-07 01:58:39.607 +0000",1528336719.607222,1.319987,-1.462625,1.277036,0.104583,0.994155,-0.026795,0.000000,0.000000,0.000000,-1,0.009669,0.078689,0.017636,-0.001586,-0.001342,0.011505
"2018-06-07 01:58:39.617 +0000",1528336719.617295,1.320871,-1.462432,1.277054,0.104794,0.994134,-0.026750,0.000000,0.000000,0.000000,-1,0.003343,0.086346,0.019824,-0.008740,0.001059,0.010759
"2018-06-07 01:58:39.627 +0000",1528336719.627367,1.322507,-1.462229,1.277757,0.105031,0.994112,-0.026628,0.000000,0.000000,0.000000,-1,-0.004018,0.095108,0.019866,-0.016210,0.001386,0.008332
"2018-06-07 01:58:39.637 +0000",1528336719.637442,1.324726,-1.462048,1.279051,0.105265,0.994093,-0.026439,0.000000,0.000000,0.000000,-1,-0.010301,0.091806,0.017720,-0.020564,0.000490,0.000346
"2018-06-07 01:58:39.648 +0000",1528336719.647514,1.327046,-1.461883,1.280503,0.105485,0.994075,-0.026234,0.000000,0.000000,0.000000,-1,-0.009227,0.085232,0.015547,-0.024018,-0.002193,-0.009045
"2018-06-07 01:58:39.658 +0000",1528336719.657588,1.328497,-1.461774,1.281139,0.105629,0.994063,-0.026107,0.000000,0.000000,0.000000,-1,0.000316,0.077619,0.004746,-0.025459,-0.002715,-0.014436
"2018-06-07 01:58:39.668 +0000",1528336719.667661,1.328878,-1.461727,1.280798,0.105685,0.994058,-0.026078,0.000000,0.000000,0.000000,-1,0.011911,0.068887,0.000392,-0.022296,-0.003961,-0.014953
"2018-06-07 01:58:39.678 +0000",1528336719.677735,1.328100,-1.461706,1.279346,0.105685,0.994056,-0.026165,0.000000,0.000000,0.000000,-1,0.021400,0.066736,-0.003939,-0.015200,-0.004508,-0.011402
"2018-06-07 01:58:39.688 +0000",1528336719.687808,1.326707,-1.461717,1.277259,0.105637,0.994057,-0.026309,0.000000,0.000000,0.000000,-1,0.026650,0.067849,-0.003947,-0.007294,-0.002068,-0.006711
"2018-06-07 01:58:39.698 +0000",1528336719.697882,1.325466,-1.461756,1.275286,0.105566,0.994061,-0.026431,0.000000,0.000000,0.000000,-1,0.022467,0.074437,-0.007146,-0.001318,0.000186,-0.001844
"2018-06-07 01:58:39.708 +0000",1528336719.707955,1.324460,-1.461843,1.273479,0.105455,0.994070,-0.026516,0.000000,0.000000,0.000000,-1,0.018271,0.077723,-0.008202,0.002379,0.000619,-0.000401
"2018-06-07 01:58:39.718 +0000",1528336719.718028,1.323760,-1.461947,1.271923,0.105338,0.994082,-0.026565,0.000000,0.000000,0.000000,-1,0.014047,0.084289,-0.006022,0.004358,-0.001162,-0.002762
"2018-06-07 01:58:39.728 +0000",1528336719.728102,1.323012,-1.462091,1.270345,0.105178,0.994097,-0.026608,0.000000,0.000000,0.000000,-1,0.009889,0.082104,-0.011397,0.006852,-0.004489,-0.004260
"2018-06-07 01:58:39.738 +0000",1528336719.738175,1.322215,-1.462238,1.268729,0.105015,0.994113,-0.026656,0.000000,0.000000,0.000000,-1,0.008816,0.079892,-0.008174,0.009304,-0.007648,-0.005754
"2018-06-07 01:58:39.748 +0000",1528336719.748249,1.321252,-1.462339,1.267059,0.104893,0.994124,-0.026733,0.000000,0.000000,0.000000,-1,0.009855,0.065611,-0.004991,0.012782,-0.008620,-0.004258
"2018-06-07 01:58:39.758 +0000",1528336719.758322,1.320369,-1.462417,1.265601,0.104794,0.994133,-0.026806,0.000000,0.000000,0.000000,-1,0.008825,0.053537,-0.006100,0.014729,-0.008552,-0.000584
"2018-06-07 01:58:39.768 +0000",1528336719.768396,1.319604,-1.462469,1.264368,0.104723,0.994138,-0.026873,0.000000,0.000000,0.000000,-1,0.009882,0.045856,-0.006124,0.016508,-0.008527,0.003466
"2018-06-07 01:58:39.778 +0000",1528336719.778469,1.319630,-1.462491,1.263982,0.104703,0.994141,-0.026865,0.000000,0.000000,0.000000,-1,0.000412,0.038131,-0.002898,0.016512,-0.008972,0.005656
"2018-06-07 01:58:39.789 +0000",1528336719.788543,1.320375,-1.462499,1.264422,0.104715,0.994142,-0.026785,0.000000,0.000000,0.000000,-1,-0.006955,0.027120,0.000314,0.015433,-0.009324,0.002417
"2018-06-07 01:58:39.799 +0000",1528336719.798616,1.321562,-1.462503,1.265347,0.104743,0.994142,-0.026660,0.000000,0.000000,0.000000,-1,-0.012214,0.026003,0.001398,0.015283,-0.006639,-0.000058
"2018-06-07 01:58:39.809 +0000",1528336719.808689,1.323476,-1.462505,1.266972,0.104792,0.994142,-0.026459,0.000000,0.000000,0.000000,-1,-0.020611,0.029277,0.000351,0.013677,-0.007051,-0.002212
"2018-06-07 01:58:39.819 +0000",1528336719.818763,1.325388,-1.462462,1.268583,0.104883,0.994138,-0.026269,0.000000,0.000000,0.000000,-1,-0.018554,0.031456,0.005731,0.012457,-0.006711,-0.007057
"2018-06-07 01:58:39.829 +0000",1528336719.828836,1.326921,-1.462385,1.269807,0.104995,0.994129,-0.026126,0.000000,0.000000,0.000000,-1,-0.010151,0.031479,0.005712,0.010376,-0.004429,-0.009870
"2018-06-07 01:58:39.839 +0000",1528336719.838910,1.327726,-1.462269,1.270336,0.105129,0.994117,-0.026069,0.000000,0.000000,0.000000,-1,-0.000703,0.028208,0.006756,0.007039,-0.001395,-0.009224
"2018-06-07 01:58:39.849 +0000",1528336719.848983,1.328478,-1.462140,1.270821,0.105272,0.994103,-0.026021,0.000000,0.000000,0.000000,-1,0.000357,0.027118,0.005675,0.003935,0.000435,-0.007747
"2018-06-07 01:58:39.859 +0000",1528336719.859057,1.328985,-1.462044,1.271047,0.105377,0.994092,-0.025990,0.000000,0.000000,0.000000,-1,0.001423,0.027130,0.003521,-0.000672,0.001574,-0.006908
"2018-06-07 01:58:39.869 +0000",1528336719.869130,1.329399,-1.461984,1.271187,0.105447,0.994086,-0.025961,0.000000,0.000000,0.000000,-1,0.000398,0.027140,0.000297,-0.001519,0.000543,-0.007349
"2018-06-07 01:58:39.879 +0000",1528336719.879204,1.329638,-1.461951,1.271190,0.105486,0.994082,-0.025944,0.000000,0.000000,0.000000,-1,0.001470,0.021664,-0.001873,-0.000154,-0.002017,-0.009167
"2018-06-07 01:58:39.889 +0000",1528336719.889277,1.329074,-1.461921,1.270469,0.105501,0.994079,-0.026011,0.000000,0.000000,0.000000,-1,0.007781,0.012899,-0.001913,0.003981,-0.005340,-0.008184
"2018-06-07 01:58:39.899 +0000",1528336719.899350,1.327626,-1.461874,1.268940,0.105509,0.994074,-0.026175,0.000000,0.000000,0.000000,-1,0.016216,0.005252,-0.005181,0.009633,-0.005716,-0.003290
"2018-06-07 01:58:39.909 +0000",1528336719.909424,1.326286,-1.461794,1.267563,0.105552,0.994065,-0.026336,0.000000,0.000000,0.000000,-1,0.010919,0.000819,0.001272,0.012841,-0.004624,0.003920
"2018-06-07 01:58:39.919 +0000",1528336719.919497,1.325483,-1.461722,1.266699,0.105600,0.994057,-0.026438,0.000000,0.000000,0.000000,-1,0.004604,0.005188,0.002375,0.011923,-0.005486,0.008402
"2018-06-07 01:58:39.930 +0000",1528336719.929571,1.325664,-1.461671,1.266843,0.105653,0.994052,-0.026431,0.000000,0.000000,0.000000,-1,-0.004866,0.005152,0.004548,0.010253,-0.006900,0.010516
"2018-06-07 01:58:39.940 +0000",1528336719.939644,1.326594,-1.461666,1.267662,0.105682,0.994051,-0.026333,0.000000,0.000000,0.000000,-1,-0.012216,0.011723,0.003508,0.007492,-0.007464,0.007062
"2018-06-07 01:58:39.950 +0000",1528336719.949718,1.327741,-1.461636,1.268722,0.105741,0.994048,-0.026219,0.000000,0.000000,0.000000,-1,-0.014342,0.011704,0.006740,0.006274,-0.006606,0.001180
"2018-06-07 01:58:39.960 +0000",1528336719.959791,1.328679,-1.461575,1.269595,0.105826,0.994041,-0.026135,0.000000,0.000000,0.000000,-1,-0.010144,0.007320,0.007793,0.003656,-0.003578,-0.002353
"2018-06-07 01:58:39.970 +0000",1528336719.969865,1.329425,-1.461509,1.270296,0.105908,0.994034,-0.026071,0.000000,0.000000,0.000000,-1,-0.008033,0.005135,0.006706,0.000736,-0.001190,-0.003729
"2018-06-07 01:58:39.980 +0000",1528336719.979938,1.330066,-1.461457,1.270912,0.105976,0.994028,-0.026016,0.000000,0.000000,0.000000,-1,-0.006947,0.001862,0.002391,-0.001087,-0.000361,-0.004166
"2018-06-07 01:58:39.990 +0000",1528336719.990011,1.330638,-1.461392,1.271472,0.106053,0.994021,-0.025971,0.000000,0.000000,0.000000,-1,-0.001702,0.000775,0.003452,-0.001545,-0.001818,-0.005035
"2018-06-07 01:58:40.000 +0000",1528336720.000085,1.331110,-1.461333,1.271907,0.106122,0.994015,-0.025935,0.000000,0.000000,0.000000,-1,0.001446,0.004077,0.003454,-0.001081,-0.003765,-0.006185
"2018-06-07 01:58:40.010 +0000",1528336720.010158,1.330954,-1.461263,1.271687,0.106187,0.994007,-0.025968,0.000000,0.000000,0.000000,-1,0.008796,0.006293,0.003444,0.000625,-0.005619,-0.006091
"2018-06-07 01:58:40.020 +0000",1528336720.020232,1.330197,-1.461162,1.270881,0.106263,0.993996,-0.026072,0.000000,0.000000,0.000000,-1,0.014027,0.001903,0.006646,0.003356,-0.005196,-0.003454
"2018-06-07 01:58:40.030 +0000",1528336720.030305,1.329292,-1.461047,1.269939,0.106351,0.993984,-0.026196,0.000000,0.000000,0.000000,-1,0.010868,0.001890,0.007729,0.002398,-0.004710,0.002331
"2018-06-07 01:58:40.040 +0000",1528336720.040379,1.328762,-1.460957,1.269388,0.106424,0.993974,-0.026273,0.000000,0.000000,0.000000,-1,0.003549,0.001887,0.003443,-0.000574,-0.006562,0.007307
"2018-06-07 01:58:40.050 +0000",1528336720.050452,1.329239,-1.460933,1.269889,0.106460,0.993971,-0.026228,0.000000,0.000000,0.000000,-1,-0.009042,-0.003632,0.002380,-0.003097,-0.005827,0.007384
"2018-06-07 01:58:40.061 +0000",1528336720.060526,1.330606,-1.460970,1.271380,0.106459,0.993975,-0.026074,0.000000,0.000000,0.000000,-1,-0.021623,-0.010245,0.000239,-0.005278,-0.003069,0.006100
"2018-06-07 01:58:40.071 +0000",1528336720.070599,1.332273,-1.461046,1.273252,0.106430,0.993984,-0.025879,0.000000,0.000000,0.000000,-1,-0.022648,-0.020119,-0.001939,-0.005676,-0.002605,0.002456
"2018-06-07 01:58:40.081 +0000",1528336720.080672,1.333599,-1.461124,1.274876,0.106389,0.993992,-0.025719,0.000000,0.000000,0.000000,-1,-0.019479,-0.029984,-0.003050,-0.003270,0.000042,-0.003517
"2018-06-07 01:58:40.091 +0000",1528336720.090746,1.334167,-1.461183,1.275798,0.106347,0.993998,-0.025645,0.000000,0.000000,0.000000,-1,-0.011071,-0.034351,-0.003082,0.000541,-0.001140,-0.007176
"2018-06-07 01:58:40.101 +0000",1528336720.100819,1.334296,-1.461201,1.276232,0.106331,0.994000,-0.025627,0.000000,0.000000,0.000000,-1,-0.003733,-0.028847,-0.002007,0.003166,-0.003903,-0.004860
"2018-06-07 01:58:40.111 +0000",1528336720.110893,1.334406,-1.461187,1.276523,0.106348,0.993999,-0.025619,0.000000,0.000000,0.000000,-1,-0.003771,-0.014589,0.001262,0.002447,-0.003826,-0.002885
"2018-06-07 01:58:40.121 +0000",1528336720.120966,1.334782,-1.461169,1.276969,0.106376,0.993997,-0.025583,0.000000,0.000000,0.000000,-1,-0.000645,-0.005808,0.003431,-0.000007,-0.002054,-0.002600
"2018-06-07 01:58:40.131 +0000",1528336720.131040,1.335014,-1.461130,1.277259,0.106418,0.993993,-0.025567,0.000000,0.000000,0.000000,-1,0.000398,-0.006907,0.004501,-0.001178,-0.000432,-0.002967
"2018-06-07 01:58:40.141 +0000",1528336720.141113,1.334814,-1.461107,1.277138,0.106434,0.993990,-0.025593,0.000000,0.000000,0.000000,-1,0.004600,-0.007993,0.004489,-0.000859,-0.001223,-0.003581
"2018-06-07 01:58:40.151 +0000",1528336720.151187,1.334313,-1.461096,1.276787,0.106431,0.993989,-0.025649,0.000000,0.000000,0.000000,-1,0.004633,-0.015664,0.001239,-0.001192,-0.001573,-0.001420
"2018-06-07 01:58:40.161 +0000",1528336720.161260,1.333674,-1.461094,1.276348,0.106418,0.993989,-0.025718,0.000000,0.000000,0.000000,-1,0.001502,-0.020055,-0.000918,-0.001315,-0.002656,0.000495
"2018-06-07 01:58:40.171 +0000",1528336720.171333,1.333335,-1.461093,1.276246,0.106410,0.993989,-0.025754,0.000000,0.000000,0.000000,-1,-0.001654,-0.023361,0.000156,-0.001261,-0.004273,0.002545
"2018-06-07 01:58:40.181 +0000",1528336720.181407,1.333598,-1.461148,1.276682,0.106364,0.993995,-0.025713,0.000000,0.000000,0.000000,-1,-0.007916,-0.013472,-0.006255,-0.003276,-0.006141,0.007266
"2018-06-07 01:58:40.191 +0000",1528336720.191480,1.334255,-1.461225,1.277475,0.106307,0.994003,-0.025626,0.000000,0.000000,0.000000,-1,-0.012111,-0.011283,-0.007315,-0.004729,-0.006042,0.008200
"2018-06-07 01:58:40.202 +0000",1528336720.201554,1.335261,-1.461324,1.278625,0.106237,0.994014,-0.025496,0.000000,0.000000,0.000000,-1,-0.016328,-0.012402,-0.005157,-0.006109,-0.005565,0.006193
"2018-06-07 01:58:40.212 +0000",1528336720.211627,1.336582,-1.461442,1.280119,0.106157,0.994027,-0.025328,0.000000,0.000000,0.000000,-1,-0.018399,-0.017883,-0.008395,-0.007738,-0.004296,-0.000139
"2018-06-07 01:58:40.222 +0000",1528336720.221701,1.337721,-1.461554,1.281459,0.106077,0.994039,-0.025182,0.000000,0.000000,0.000000,-1,-0.017355,-0.018982,-0.007325,-0.004835,-0.004720,-0.003825
"2018-06-07 01:58:40.232 +0000",1528336720.231774,1.338460,-1.461660,1.282368,0.105993,0.994051,-0.025079,0.000000,0.000000,0.000000,-1,-0.011058,-0.014574,-0.007327,-0.000753,-0.005128,-0.005057
"2018-06-07 01:58:40.242 +0000",1528336720.241848,1.339048,-1.461750,1.283067,0.105920,0.994060,-0.024996,0.000000,0.000000,0.000000,-1,-0.010022,-0.007989,-0.006234,0.002692,-0.004436,-0.003141
"2018-06-07 01:58:40.252 +0000",1528336720.251921,1.339788,-1.461852,1.283892,0.105839,0.994071,-0.024894,0.000000,0.000000,0.000000,-1,-0.012108,-0.005790,-0.008374,0.004818,-0.002220,-0.002053
"2018-06-07 01:58:40.262 +0000",1528336720.261994,1.340706,-1.461954,1.284906,0.105763,0.994083,-0.024774,0.000000,0.000000,0.000000,-1,-0.012120,-0.010190,-0.006236,0.003902,-0.000857,-0.001410
"2018-06-07 01:58:40.272 +0000",1528336720.272068,1.341847,-1.462049,1.286161,0.105698,0.994093,-0.024631,0.000000,0.000000,0.000000,-1,-0.012128,-0.011292,-0.005163,0.004013,-0.002943,-0.003094
"2018-06-07 01:58:40.282 +0000",1528336720.282141,1.342892,-1.462147,1.287353,0.105628,0.994103,-0.024499,0.000000,0.000000,0.000000,-1,-0.012122,-0.016781,-0.005179,0.001337,-0.004724,-0.005195
"2018-06-07 01:58:40.292 +0000",1528336720.292215,1.343357,-1.462216,1.287986,0.105573,0.994111,-0.024434,0.000000,0.000000,0.000000,-1,-0.007945,-0.017881,-0.001965,0.000704,-0.004182,-0.004832
"2018-06-07 01:58:40.302 +0000",1528336720.302288,1.343628,-1.462259,1.288464,0.105537,0.994116,-0.024396,0.000000,0.000000,0.000000,-1,-0.006891,-0.021171,-0.001977,-0.000023,-0.002996,-0.002200
"2018-06-07 01:58:40.312 +0000",1528336720.312362,1.344037,-1.462316,1.289080,0.105492,0.994122,-0.024340,0.000000,0.000000,0.000000,-1,-0.011086,-0.018983,-0.003037,-0.001976,-0.002301,-0.000974
"2018-06-07 01:58:40.322 +0000",1528336720.322435,1.344772,-1.462411,1.290024,0.105419,0.994132,-0.024241,0.000000,0.000000,0.000000,-1,-0.013144,-0.021162,-0.008417,-0.002910,-0.002753,-0.001409
"2018-06-07 01:58:40.333 +0000",1528336720.332509,1.345536,-1.462471,1.291018,0.105378,0.994139,-0.024147,0.000000,0.000000,0.000000,-1,-0.012118,-0.021172,-0.005192,-0.001771,-0.003157,-0.001884
"2018-06-07 01:58:40.343 +0000",1528336720.342582,1.346140,-1.462527,1.291803,0.105340,0.994145,-0.024072,0.000000,0.000000,0.000000,-1,-0.008963,-0.016768,-0.006262,0.000251,-0.003803,-0.003440
"2018-06-07 01:58:40.353 +0000",1528336720.352655,1.346510,-1.462574,1.292307,0.105304,0.994150,-0.024022,0.000000,0.000000,0.000000,-1,-0.006883,-0.012380,-0.004103,0.000333,-0.003030,-0.004374
"2018-06-07 01:58:40.363 +0000",1528336720.362729,1.347036,-1.462619,1.292907,0.105273,0.994155,-0.023957,0.000000,0.000000,0.000000,-1,-0.008991,-0.004702,-0.004076,-0.002032,-0.002516,-0.002349
"2018-06-07 01:58:40.373 +0000",1528336720.372802,1.347450,-1.462692,1.293456,0.105212,0.994162,-0.023897,0.000000,0.000000,0.000000,-1,-0.008958,-0.013470,-0.007328,-0.004336,-0.002097,-0.002546
"2018-06-07 01:58:40.383 +0000",1528336720.382876,1.348008,-1.462800,1.294205,0.105120,0.994174,-0.023815,0.000000,0.000000,0.000000,-1,-0.009994,-0.020055,-0.008421,-0.007036,-0.003375,-0.003559
"2018-06-07 01:58:40.393 +0000",1528336720.392949,1.348321,-1.462927,1.294751,0.105005,0.994188,-0.023754,0.000000,0.000000,0.000000,-1,-0.007867,-0.021133,-0.011656,-0.006738,-0.005983,-0.003315
