timestamp,timeIntervalSince1970,attitude.roll,attitude.pitch,attitude.yaw,gravity.x,gravity.y,gravity.z,magneticField.x,magneticField.y,magneticField.z,magneticField.accuracy,rotationRate.x,rotationRate.y,rotationRate.z,userAcceleration.x,userAcceleration.y,userAcceleration.z
"2018-06-06 23:18:24.706 +0000",1528327104.705738,-0.195966,0.051961,0.010310,-0.194451,-0.051938,-0.979536,0.000000,0.000000,0.000000,-1,-0.431338,1.154219,0.818470,0.140862,0.145627,-0.285570
"2018-06-06 23:18:24.716 +0000",1528327104.715811,-0.179252,0.047395,0.019808,-0.178093,-0.047377,-0.982872,0.000000,0.000000,0.000000,-1,-0.241798,1.901258,1.074061,0.143776,0.182906,-0.154014
"2018-06-06 23:18:24.726 +0000",1528327104.725885,-0.154299,0.042271,0.031935,-0.153550,-0.042258,-0.987237,0.000000,0.000000,0.000000,-1,-0.345398,2.742984,1.330599,0.161530,0.235206,0.013070
"2018-06-06 23:18:24.736 +0000",1528327104.735959,-0.120626,0.033859,0.045960,-0.120265,-0.033853,-0.992164,0.000000,0.000000,0.000000,-1,-0.760617,3.612581,1.540604,0.222148,0.248147,0.181526
"2018-06-06 23:18:24.746 +0000",1528327104.746032,-0.078066,0.019721,0.061184,-0.077972,-0.019720,-0.996760,0.000000,0.000000,0.000000,-1,-1.425169,4.492820,1.665158,0.271469,0.191015,0.349223
"2018-06-06 23:18:24.756 +0000",1528327104.756107,-0.024117,-0.001959,0.077257,-0.024114,0.001959,-0.999707,0.000000,0.000000,0.000000,-1,-2.296320,5.697766,1.708306,0.247991,0.159555,0.431378
"2018-06-06 23:18:24.766 +0000",1528327104.766181,0.045494,-0.032259,0.094326,0.045455,0.032253,-0.998446,0.000000,0.000000,0.000000,-1,-3.260371,7.290485,1.628020,0.185609,0.257420,0.478060
"2018-06-06 23:18:24.776 +0000",1528327104.776255,0.130997,-0.070104,0.111508,0.130301,0.070047,-0.988997,0.000000,0.000000,0.000000,-1,-4.080147,8.731191,1.243629,0.150918,0.329932,0.472350
"2018-06-06 23:18:24.786 +0000",1528327104.786329,0.229941,-0.112675,0.126452,0.226475,0.112437,-0.967506,0.000000,0.000000,0.000000,-1,-4.499965,9.984594,0.500663,0.138622,0.295766,0.335700
"2018-06-06 23:18:24.796 +0000",1528327104.796402,0.339784,-0.157334,0.138485,0.329167,0.156685,-0.931181,0.000000,0.000000,0.000000,-1,-4.576620,10.994434,-0.310487,0.073421,0.199974,0.141295
"2018-06-06 23:18:24.806 +0000",1528327104.806477,0.434351,-0.199629,0.146438,0.412464,0.198306,-0.889128,0.000000,0.000000,0.000000,-1,-3.938642,7.748841,-1.059282,0.113903,0.161787,-0.128618
"2018-06-06 23:18:24.817 +0000",1528327104.816551,0.487847,-0.234126,0.144368,0.455937,0.231993,-0.859244,0.000000,0.000000,0.000000,-1,-2.748428,4.724895,-1.941001,0.160167,-0.012007,0.079734
"2018-06-06 23:18:24.827 +0000",1528327104.826625,0.521148,-0.268222,0.137801,0.480074,0.265018,-0.836239,0.000000,0.000000,0.000000,-1,-2.651061,3.352692,-2.140983,0.070311,-0.147388,-0.019657
"2018-06-06 23:18:24.837 +0000",1528327104.836699,0.555554,-0.298056,0.135232,0.504160,0.293662,-0.812148,0.000000,0.000000,0.000000,-1,-2.308656,3.445806,-1.604749,0.155294,0.006219,0.096282
"2018-06-06 23:18:24.847 +0000",1528327104.846773,0.582834,-0.320663,0.133517,0.522337,0.315196,-0.792348,0.000000,0.000000,0.000000,-1,-1.605555,2.484703,-1.268176,0.312685,0.202672,-0.149150
"2018-06-06 23:18:24.857 +0000",1528327104.856847,0.599768,-0.334877,0.130391,0.533096,0.328653,-0.779612,0.000000,0.000000,0.000000,-1,-0.824587,1.599680,-0.959526,0.391587,-0.000299,-0.309896
"2018-06-06 23:18:24.867 +0000",1528327104.866921,0.611977,-0.343492,0.125771,0.540928,0.336777,-0.770700,0.000000,0.000000,0.000000,-1,-0.362176,1.321558,-0.822636,0.259548,-0.004364,-0.125952
"2018-06-06 23:18:24.877 +0000",1528327104.876995,0.623783,-0.350100,0.119087,0.548677,0.342992,-0.762437,0.000000,0.000000,0.000000,-1,-0.120934,1.447830,-0.931461,0.046736,0.059886,0.013047
"2018-06-06 23:18:24.887 +0000",1528327104.887069,0.638215,-0.357073,0.109979,0.558185,0.349533,-0.752500,0.000000,0.000000,0.000000,-1,-0.060875,1.864944,-1.144439,-0.058917,0.056381,0.115797
"2018-06-06 23:18:24.897 +0000",1528327104.897143,0.657110,-0.365645,0.100357,0.570451,0.357552,-0.739420,0.000000,0.000000,0.000000,-1,-0.175057,2.323899,-1.240726,-0.011048,0.039375,0.212489
"2018-06-06 23:18:24.907 +0000",1528327104.907216,0.679643,-0.376037,0.091597,0.584599,0.367237,-0.723450,0.000000,0.000000,0.000000,-1,-0.355545,2.580500,-1.294424,0.010692,0.072841,0.232880
"2018-06-06 23:18:24.917 +0000",1528327104.917290,0.698331,-0.389132,0.083884,0.594873,0.379385,-0.708655,0.000000,0.000000,0.000000,-1,-0.630321,1.928121,-1.404333,-0.029016,0.071695,0.246787
"2018-06-06 23:18:24.927 +0000",1528327104.927364,0.709183,-0.405941,0.078558,0.598290,0.394884,-0.697220,0.000000,0.000000,0.000000,-1,-1.076547,1.082921,-1.458476,-0.093026,0.037383,0.350464
"2018-06-06 23:18:24.937 +0000",1528327104.937438,0.715339,-0.426350,0.077584,0.597160,0.413551,-0.687296,0.000000,0.000000,0.000000,-1,-1.606177,0.534333,-1.356673,-0.105476,-0.026618,0.338846
"2018-06-06 23:18:24.948 +0000",1528327104.947512,0.719579,-0.449015,0.081264,0.593738,0.434079,-0.677533,0.000000,0.000000,0.000000,-1,-1.996803,0.187849,-1.190061,-0.064487,-0.074551,0.218899
"2018-06-06 23:18:24.958 +0000",1528327104.957586,0.722370,-0.472842,0.088032,0.588620,0.455418,-0.667923,0.000000,0.000000,0.000000,-1,-2.225244,-0.082162,-1.089213,-0.039883,-0.037236,0.123016
"2018-06-06 23:18:24.968 +0000",1528327104.967660,0.726136,-0.496909,0.096149,0.583683,0.476711,-0.657313,0.000000,0.000000,0.000000,-1,-2.256253,0.074514,-1.037055,-0.070881,-0.002818,0.101329
"2018-06-06 23:18:24.978 +0000",1528327104.977734,0.731035,-0.521752,0.106067,0.578809,0.498400,-0.645428,0.000000,0.000000,0.000000,-1,-2.522113,-0.132781,-0.995099,-0.110913,0.004805,0.066464
"2018-06-06 23:18:24.988 +0000",1528327104.987808,0.733388,-0.548796,0.118426,0.571092,0.521660,-0.633817,0.000000,0.000000,0.000000,-1,-2.706644,-0.406602,-1.004078,-0.103120,0.064186,-0.145450
"2018-06-06 23:18:24.998 +0000",1528327104.997882,0.735218,-0.574035,0.130645,0.563239,0.543025,-0.622805,0.000000,0.000000,0.000000,-1,-2.477442,-0.508558,-0.884427,-0.041083,0.130818,-0.258329
"2018-06-06 23:18:25.008 +0000",1528327105.007956,0.735164,-0.595616,0.141243,0.555215,0.561019,-0.613998,0.000000,0.000000,0.000000,-1,-2.066672,-0.583726,-0.750056,0.153907,0.077302,-0.429489
"2018-06-06 23:18:25.018 +0000",1528327105.018030,0.735909,-0.612631,0.149941,0.549184,0.575022,-0.606420,0.000000,0.000000,0.000000,-1,-1.617794,-0.347271,-0.555704,0.272410,0.009725,-0.484583
"2018-06-06 23:18:25.028 +0000",1528327105.028104,0.778539,-0.643440,0.180703,0.561817,0.599951,-0.569578,0.000000,0.000000,0.000000,-1,-1.212415,-0.133666,-0.438766,0.258465,-0.021277,-0.541262
"2018-06-06 23:18:25.038 +0000",1528327105.038178,0.781755,-0.653283,0.184648,0.559459,0.607797,-0.563550,0.000000,0.000000,0.000000,-1,-0.814309,0.167303,-0.479676,0.186910,0.018989,-0.522616
"2018-06-06 23:18:25.048 +0000",1528327105.048252,0.786439,-0.660716,0.185110,0.558879,0.613682,-0.557716,0.000000,0.000000,0.000000,-1,-0.468968,0.527301,-0.495555,0.155522,0.017513,-0.473320
"2018-06-06 23:18:25.058 +0000",1528327105.058326,0.793549,-0.666343,0.183263,0.560359,0.618115,-0.551298,0.000000,0.000000,0.000000,-1,-0.246635,0.913252,-0.499244,0.160908,0.063586,-0.393602
"2018-06-06 23:18:25.068 +0000",1528327105.068400,0.838836,-0.687773,0.202887,0.574756,0.634818,-0.516392,0.000000,0.000000,0.000000,-1,-0.304365,1.264581,-0.547569,0.085355,0.139505,-0.293788
"2018-06-06 23:18:25.078 +0000",1528327105.078474,0.853440,-0.695828,0.202710,0.578364,0.641021,-0.504566,0.000000,0.000000,0.000000,-1,-0.596010,1.504496,-0.622574,0.025594,0.163972,-0.148907
"2018-06-06 23:18:25.089 +0000",1528327105.088548,0.871929,-0.705306,0.205883,0.582915,0.648267,-0.489856,0.000000,0.000000,0.000000,-1,-0.856449,1.676760,-0.512836,0.150742,0.154284,-0.078916
"2018-06-06 23:18:25.099 +0000",1528327105.098622,0.894839,-0.714098,0.214069,0.589515,0.654936,-0.472789,0.000000,0.000000,0.000000,-1,-1.088895,1.751676,-0.206603,0.348366,0.144380,-0.065251
"2018-06-06 23:18:25.109 +0000",1528327105.108696,0.951044,-0.733793,0.248046,0.604525,0.669691,-0.431349,0.000000,0.000000,0.000000,-1,-1.315116,1.521801,0.010527,0.139738,0.120485,-0.118226
"2018-06-06 23:18:25.119 +0000",1528327105.118770,0.975389,-0.741010,0.264999,0.610828,0.675034,-0.413784,0.000000,0.000000,0.000000,-1,-1.465057,1.213416,0.151958,0.014126,0.105240,-0.154529
"2018-06-06 23:18:25.129 +0000",1528327105.128844,0.998549,-0.748162,0.284431,0.616172,0.680293,-0.396903,0.000000,0.000000,0.000000,-1,-1.612173,0.915320,0.197681,-0.018516,0.163259,-0.122231
"2018-06-06 23:18:25.139 +0000",1528327105.138918,1.020733,-0.754945,0.306370,0.620876,0.685249,-0.380717,0.000000,0.000000,0.000000,-1,-1.731506,0.658723,0.313377,-0.015758,0.132759,-0.123312
"2018-06-06 23:18:25.149 +0000",1528327105.148992,1.071004,-0.768907,0.350476,0.630764,0.695350,-0.344418,0.000000,0.000000,0.000000,-1,-1.793890,0.464443,0.528084,0.069340,0.083763,-0.171512
"2018-06-06 23:18:25.159 +0000",1528327105.159066,1.094021,-0.771862,0.377618,0.636695,0.697470,-0.328865,0.000000,0.000000,0.000000,-1,-1.869509,0.399958,0.672206,0.069237,0.093484,-0.158959
"2018-06-06 23:18:25.169 +0000",1528327105.169140,1.119153,-0.774700,0.407433,0.642975,0.699502,-0.311896,0.000000,0.000000,0.000000,-1,-2.081988,0.435443,0.708292,0.004608,0.091895,-0.061181
"2018-06-06 23:18:25.179 +0000",1528327105.179214,1.146831,-0.776828,0.441494,0.650002,0.701021,-0.293370,0.000000,0.000000,0.000000,-1,-2.335364,0.345066,0.888242,0.100227,-0.005678,-0.008006
"2018-06-06 23:18:25.189 +0000",1528327105.189288,1.200922,-0.783746,0.497299,0.660374,0.705938,-0.256039,0.000000,0.000000,0.000000,-1,-2.462710,0.165496,1.217159,0.218562,-0.053914,-0.071048
"2018-06-06 23:18:25.199 +0000",1528327105.199362,1.230044,-0.778274,0.537591,0.671180,0.702051,-0.237990,0.000000,0.000000,0.000000,-1,-2.469635,0.044271,1.586844,0.285515,-0.029108,-0.107546
"2018-06-06 23:18:25.209 +0000",1528327105.209436,1.258226,-0.768787,0.577684,0.683927,0.695264,-0.221021,0.000000,0.000000,0.000000,-1,-2.358335,0.025842,1.867279,0.281817,-0.083417,-0.169788
"2018-06-06 23:18:25.220 +0000",1528327105.219510,1.285917,-0.756335,0.615732,0.698039,0.686261,-0.204417,0.000000,0.000000,0.000000,-1,-2.211493,0.190316,2.010482,0.253316,-0.160900,-0.169515
"2018-06-06 23:18:25.230 +0000",1528327105.229584,1.315720,-0.742580,0.651324,0.712888,0.676191,-0.185890,0.000000,0.000000,0.000000,-1,-2.103689,0.703333,1.996668,0.236804,-0.188825,-0.131401
"2018-06-06 23:18:25.240 +0000",1528327105.239658,1.350752,-0.728025,0.685099,0.728489,0.665397,-0.162938,0.000000,0.000000,0.000000,-1,-2.070722,1.401617,1.994321,0.306072,-0.192634,-0.121898
"2018-06-06 23:18:25.250 +0000",1528327105.249732,1.390899,-0.712194,0.718379,0.744714,0.653496,-0.135436,0.000000,0.000000,0.000000,-1,-2.153566,1.911613,2.050853,0.429313,-0.169426,-0.083070
"2018-06-06 23:18:25.260 +0000",1528327105.259806,1.433702,-0.694850,0.753186,0.760942,0.640270,-0.104979,0.000000,0.000000,0.000000,-1,-2.393835,2.034625,2.138888,0.467254,-0.073818,0.041655
"2018-06-06 23:18:25.270 +0000",1528327105.269880,1.477962,-0.676229,0.789145,0.776579,0.625856,-0.072301,0.000000,0.000000,0.000000,-1,-2.574709,2.160313,2.151500,0.396562,-0.076585,0.057774
"2018-06-06 23:18:25.280 +0000",1528327105.279954,1.521098,-0.656643,0.824634,0.791067,0.610461,-0.039347,0.000000,0.000000,0.000000,-1,-2.624847,2.043901,2.129763,0.298868,-0.205127,-0.058309
"2018-06-06 23:18:25.290 +0000",1528327105.290028,1.556639,-0.636821,0.855738,0.803909,0.594642,-0.011382,0.000000,0.000000,0.000000,-1,-2.265272,1.515173,2.011232,0.159363,-0.338935,-0.342088
"2018-06-06 23:18:25.300 +0000",1528327105.300102,1.576815,-0.618410,0.874381,0.814786,0.579740,0.004904,0.000000,0.000000,0.000000,-1,-1.203874,0.700215,1.765486,-0.031033,-0.411069,-0.899099
"2018-06-06 23:18:25.310 +0000",1528327105.310176,1.581985,-0.602816,0.880456,0.823690,0.566965,0.009216,0.000000,0.000000,0.000000,-1,-0.330274,0.019947,1.475385,-0.181981,-0.476618,-1.056625
"2018-06-06 23:18:25.320 +0000",1528327105.320250,1.580679,-0.588408,0.882282,0.831784,0.555038,0.008221,0.000000,0.000000,0.000000,-1,-0.158521,-0.286811,1.441830,-0.130520,-0.471084,-0.672069
"2018-06-06 23:18:25.330 +0000",1528327105.330324,1.578382,-0.572398,0.884657,0.840580,0.541649,0.006376,0.000000,0.000000,0.000000,-1,-0.226106,-0.371245,1.636431,0.031964,-0.378304,-0.403257
"2018-06-06 23:18:25.340 +0000",1528327105.340398,1.575762,-0.555587,0.886761,0.849579,0.527443,0.004219,0.000000,0.000000,0.000000,-1,-0.163183,-0.363435,1.648142,0.019042,-0.230842,-0.322425
"2018-06-06 23:18:25.350 +0000",1528327105.350472,1.572884,-0.541165,0.887957,0.857107,0.515135,0.001789,0.000000,0.000000,0.000000,-1,-0.096855,-0.340051,1.351180,-0.128301,-0.076978,-0.235447
"2018-06-06 23:18:25.361 +0000",1528327105.360546,1.571112,-0.529542,0.889680,0.863038,0.505138,0.000273,0.000000,0.000000,0.000000,-1,-0.181135,-0.227247,1.096773,-0.180451,-0.013942,-0.122343
"2018-06-06 23:18:25.371 +0000",1528327105.370620,1.572270,-0.520221,0.893778,0.867708,0.497072,0.001279,0.000000,0.000000,0.000000,-1,-0.416919,-0.050202,0.867640,-0.210100,0.021605,-0.000577
"2018-06-06 23:18:25.381 +0000",1528327105.380694,1.574968,-0.512538,0.900774,0.871495,0.490390,0.003635,0.000000,0.000000,0.000000,-1,-0.661660,-0.110725,0.740022,-0.272480,0.027676,0.006100
"2018-06-06 23:18:25.391 +0000",1528327105.390768,1.576041,-0.505796,0.909633,0.874776,0.484504,0.004588,0.000000,0.000000,0.000000,-1,-0.794997,-0.401553,0.631917,-0.313482,0.005379,-0.076289
"2018-06-06 23:18:25.401 +0000",1528327105.400842,1.572808,-0.500448,0.918936,0.877366,0.479818,0.001765,0.000000,0.000000,0.000000,-1,-0.804032,-0.927979,0.505632,-0.420044,0.014200,-0.141047
"2018-06-06 23:18:25.411 +0000",1528327105.410916,1.562227,-0.495407,0.927360,0.879743,0.475390,-0.007539,0.000000,0.000000,0.000000,-1,-0.696382,-1.610565,0.522761,-0.375272,-0.075991,-0.245833
"2018-06-06 23:18:25.421 +0000",1528327105.420990,1.547139,-0.489100,0.934131,0.882509,0.469831,-0.020882,0.000000,0.000000,0.000000,-1,-0.547150,-1.846820,0.677701,-0.201814,-0.136122,-0.237023
"2018-06-06 23:18:25.431 +0000",1528327105.431064,1.531561,-0.481657,0.939598,0.885546,0.463248,-0.034763,0.000000,0.000000,0.000000,-1,-0.429295,-1.770063,0.776614,-0.068835,-0.108008,-0.168515
"2018-06-06 23:18:25.441 +0000",1528327105.441138,1.517702,-0.473797,0.944583,0.888588,0.456269,-0.047224,0.000000,0.000000,0.000000,-1,-0.392821,-1.531779,0.784753,-0.001701,-0.099518,-0.107638
"2018-06-06 23:18:25.451 +0000",1528327105.451212,1.505908,-0.466722,0.948621,0.891169,0.449961,-0.057908,0.000000,0.000000,0.000000,-1,-0.283193,-1.305002,0.705564,-0.042139,-0.086435,-0.085434
"2018-06-06 23:18:25.461 +0000",1528327105.461286,1.494030,-0.459592,0.950844,0.893594,0.443582,-0.068733,0.000000,0.000000,0.000000,-1,-0.109051,-1.260701,0.727882,-0.048562,-0.134576,-0.163628
"2018-06-06 23:18:25.471 +0000",1528327105.471360,1.481318,-0.452268,0.951639,0.895860,0.437006,-0.080375,0.000000,0.000000,0.000000,-1,0.031725,-1.323996,0.731678,-0.133058,-0.142451,-0.158197
"2018-06-06 23:18:25.481 +0000",1528327105.481434,1.466916,-0.444799,0.950628,0.897831,0.430277,-0.093604,0.000000,0.000000,0.000000,-1,0.206196,-1.423396,0.728838,-0.217716,-0.166513,-0.178445
"2018-06-06 23:18:25.492 +0000",1528327105.491508,1.448801,-0.436749,0.947288,0.899397,0.422996,-0.110270,0.000000,0.000000,0.000000,-1,0.453005,-1.730256,0.769331,-0.200972,-0.163688,-0.199865
"2018-06-06 23:18:25.502 +0000",1528327105.501582,1.430175,-0.429707,0.942911,0.900114,0.416604,-0.127416,0.000000,0.000000,0.000000,-1,0.456499,-1.608668,0.572833,-0.214033,-0.037973,-0.020380
"2018-06-06 23:18:25.512 +0000",1528327105.511656,1.415841,-0.425728,0.940993,0.899826,0.412984,-0.140560,0.000000,0.000000,0.000000,-1,0.131550,-1.235206,0.304677,-0.171524,0.137798,0.277508
"2018-06-06 23:18:25.522 +0000",1528327105.521730,1.406566,-0.423445,0.942292,0.899411,0.410904,-0.149053,0.000000,0.000000,0.000000,-1,-0.119318,-0.904117,0.242751,-0.010114,0.140610,0.210012
"2018-06-06 23:18:25.532 +0000",1528327105.531804,1.399368,-0.420476,0.944058,0.899513,0.408195,-0.155731,0.000000,0.000000,0.000000,-1,-0.092952,-0.766168,0.348506,0.110237,0.080727,-0.124344
"2018-06-06 23:18:25.542 +0000",1528327105.541878,1.392490,-0.416233,0.945246,0.900117,0.404318,-0.162220,0.000000,0.000000,0.000000,-1,-0.011916,-0.715904,0.458182,0.078368,0.015787,-0.297604
"2018-06-06 23:18:25.552 +0000",1528327105.551952,1.384498,-0.411104,0.944991,0.900818,0.399621,-0.169790,0.000000,0.000000,0.000000,-1,0.200028,-0.890073,0.508821,-0.013734,-0.009225,-0.351176
"2018-06-06 23:18:25.562 +0000",1528327105.562026,1.369946,-0.404708,0.940282,0.900739,0.393750,-0.183386,0.000000,0.000000,0.000000,-1,0.643567,-1.367553,0.529005,0.009189,-0.030210,-0.551142
"2018-06-06 23:18:25.572 +0000",1528327105.572100,1.350694,-0.398523,0.932817,0.899401,0.388058,-0.201221,0.000000,0.000000,0.000000,-1,0.820041,-1.724538,0.433981,-0.045702,0.023335,-0.351102
"2018-06-06 23:18:25.582 +0000",1528327105.582174,1.326086,-0.391087,0.923713,0.896952,0.381194,-0.223982,0.000000,0.000000,0.000000,-1,1.021026,-2.159306,0.575301,0.016470,-0.009993,-0.403047
"2018-06-06 23:18:25.592 +0000",1528327105.592248,1.294016,-0.377773,0.913216,0.894112,0.368852,-0.253992,0.000000,0.000000,0.000000,-1,1.435653,-3.117238,1.273961,0.290260,-0.202912,-0.478552
"2018-06-06 23:18:25.602 +0000",1528327105.602322,1.259291,-0.360314,0.903407,0.890750,0.352568,-0.286811,0.000000,0.000000,0.000000,-1,1.266009,-3.100431,1.342164,0.478131,-0.308577,-0.285775
"2018-06-06 23:18:25.612 +0000",1528327105.612396,1.228641,-0.345628,0.898985,0.886324,0.338787,-0.315677,0.000000,0.000000,0.000000,-1,0.738225,-2.750138,1.229298,0.106977,0.100284,0.233753
"2018-06-06 23:18:25.622 +0000",1528327105.622470,1.210313,-0.334278,0.899978,0.883931,0.328088,-0.333202,0.000000,0.000000,0.000000,-1,0.120030,-1.524766,1.019149,0.242442,0.050651,0.354900
"2018-06-06 23:18:25.633 +0000",1528327105.632544,1.205777,-0.328447,0.907948,0.884183,0.322573,-0.337886,0.000000,0.000000,0.000000,-1,-0.677222,-0.469834,0.758359,0.208652,0.212644,0.611079
"2018-06-06 23:18:25.643 +0000",1528327105.642618,1.210102,-0.325294,0.920254,0.886583,0.319587,-0.334415,0.000000,0.000000,0.000000,-1,-1.035436,0.161787,0.686797,0.193556,0.108238,0.300022
"2018-06-06 23:18:25.653 +0000",1528327105.652692,1.218201,-0.323925,0.933197,0.889672,0.318290,-0.327375,0.000000,0.000000,0.000000,-1,-1.096137,0.453370,0.485563,-0.064065,0.068139,0.096967
"2018-06-06 23:18:25.663 +0000",1528327105.662766,1.227885,-0.325079,0.945216,0.892454,0.319384,-0.318621,0.000000,0.000000,0.000000,-1,-1.107908,0.623509,0.219325,-0.290831,0.134703,-0.013823
"2018-06-06 23:18:25.673 +0000",1528327105.672840,1.240134,-0.327473,0.956734,0.895564,0.321651,-0.307416,0.000000,0.000000,0.000000,-1,-1.093742,0.947837,0.112672,-0.247615,0.201436,-0.043536
"2018-06-06 23:18:25.683 +0000",1528327105.682914,1.257406,-0.329990,0.967703,0.899967,0.324033,-0.291652,0.000000,0.000000,0.000000,-1,-1.040562,1.501337,0.094798,-0.113468,0.325854,-0.033269
"2018-06-06 23:18:25.693 +0000",1528327105.692988,1.278791,-0.331170,0.977825,0.905631,0.325150,-0.272230,0.000000,0.000000,0.000000,-1,-0.899899,1.878939,0.195610,-0.031653,0.358245,-0.112032
"2018-06-06 23:18:25.703 +0000",1528327105.703062,1.302096,-0.331005,0.986570,0.911780,0.324994,-0.251067,0.000000,0.000000,0.000000,-1,-0.757719,2.082164,0.257187,-0.043021,0.378573,-0.248887
"2018-06-06 23:18:25.713 +0000",1528327105.713136,1.327469,-0.330466,0.995000,0.918026,0.324484,-0.227897,0.000000,0.000000,0.000000,-1,-0.761916,2.282052,0.231963,-0.087857,0.359553,-0.246453
"2018-06-06 23:18:25.723 +0000",1528327105.723210,1.352799,-0.331024,1.003461,0.923327,0.325012,-0.204533,0.000000,0.000000,0.000000,-1,-0.789136,2.205714,0.093045,-0.189318,0.298371,-0.268352
"2018-06-06 23:18:25.733 +0000",1528327105.733284,1.375634,-0.332561,1.011840,0.927265,0.326465,-0.183300,0.000000,0.000000,0.000000,-1,-0.809054,1.917390,-0.013162,-0.216358,0.171597,-0.299229
"2018-06-06 23:18:25.743 +0000",1528327105.743358,1.394461,-0.334279,1.020789,0.929998,0.328088,-0.165713,0.000000,0.000000,0.000000,-1,-0.875986,1.447273,0.007137,-0.065328,0.057791,-0.252714
"2018-06-06 23:18:25.753 +0000",1528327105.753432,1.409111,-0.334566,1.030760,0.932233,0.328359,-0.152055,0.000000,0.000000,0.000000,-1,-0.951288,1.064444,0.149257,0.275973,-0.024160,-0.235106
"2018-06-06 23:18:25.764 +0000",1528327105.763505,1.422960,-0.336471,1.041822,0.933629,0.330158,-0.139039,0.000000,0.000000,0.000000,-1,-1.089978,1.012459,-0.111959,0.210521,0.022854,-0.122130
"2018-06-06 23:18:25.774 +0000",1528327105.773580,1.438282,-0.341956,1.053925,0.933840,0.335330,-0.124477,0.000000,0.000000,0.000000,-1,-1.233422,1.155138,-0.461876,0.096952,-0.042362,-0.086964
"2018-06-06 23:18:25.784 +0000",1528327105.783654,1.453921,-0.349632,1.067143,0.933089,0.342552,-0.109554,0.000000,0.000000,0.000000,-1,-1.340202,1.067741,-0.633988,0.162187,-0.125938,-0.110142
"2018-06-06 23:18:25.794 +0000",1528327105.793728,1.467483,-0.358107,1.080353,0.931567,0.350502,-0.096587,0.000000,0.000000,0.000000,-1,-1.293051,0.826748,-0.726227,0.115720,-0.169274,-0.149857
"2018-06-06 23:18:25.804 +0000",1528327105.803802,1.477850,-0.367509,1.092315,0.929196,0.359292,-0.086615,0.000000,0.000000,0.000000,-1,-1.164705,0.540025,-0.854281,-0.042432,-0.215539,-0.158869
"2018-06-06 23:18:25.814 +0000",1528327105.813876,1.485742,-0.378108,1.103666,0.926004,0.369163,-0.078951,0.000000,0.000000,0.000000,-1,-1.142425,0.326606,-0.993712,-0.158762,-0.234474,-0.078169
"2018-06-06 23:18:25.824 +0000",1528327105.823950,1.491473,-0.389689,1.115046,0.922118,0.379901,-0.073300,0.000000,0.000000,0.000000,-1,-1.129010,0.077763,-1.068686,-0.194472,-0.133273,-0.009144
"2018-06-06 23:18:25.834 +0000",1528327105.834023,1.494048,-0.401300,1.125838,0.917843,0.390615,-0.070582,0.000000,0.000000,0.000000,-1,-1.047806,-0.232663,-1.073002,-0.182706,-0.089437,-0.104452
"2018-06-06 23:18:25.844 +0000",1528327105.844098,1.493310,-0.413124,1.135231,0.913122,0.401473,-0.070897,0.000000,0.000000,0.000000,-1,-0.908563,-0.515320,-1.116093,-0.197256,-0.075896,-0.227809
"2018-06-06 23:18:25.854 +0000",1528327105.854172,1.489045,-0.424640,1.143530,0.908143,0.411993,-0.074408,0.000000,0.000000,0.000000,-1,-0.825736,-0.836985,-1.056982,-0.103303,-0.102499,-0.306665
"2018-06-06 23:18:25.864 +0000",1528327105.864246,1.481711,-0.435378,1.150966,0.903114,0.421754,-0.080668,0.000000,0.000000,0.000000,-1,-0.732487,-1.099354,-0.994496,-0.081902,-0.075516,-0.310109
"2018-06-06 23:18:25.874 +0000",1528327105.874320,1.470838,-0.446455,1.156615,0.897480,0.431771,-0.090011,0.000000,0.000000,0.000000,-1,-0.560359,-1.392727,-1.078568,-0.159794,-0.018792,-0.329637
"2018-06-06 23:18:25.884 +0000",1528327105.884394,1.456439,-0.459119,1.159570,0.890587,0.443159,-0.102291,0.000000,0.000000,0.000000,-1,-0.343387,-1.594414,-1.268965,-0.189812,-0.034208,-0.329227
"2018-06-06 23:18:25.894 +0000",1528327105.894468,1.441040,-0.472657,1.160150,0.882876,0.455254,-0.115206,0.000000,0.000000,0.000000,-1,-0.174902,-1.508040,-1.335790,-0.108371,-0.066704,-0.218092
"2018-06-06 23:18:25.905 +0000",1528327105.904541,1.428780,-0.486293,1.159442,0.875171,0.467352,-0.125131,0.000000,0.000000,0.000000,-1,-0.118446,-1.057707,-1.357198,0.000897,-0.011572,0.020745
"2018-06-06 23:18:25.915 +0000",1528327105.914616,1.422106,-0.499991,1.159878,0.867903,0.479417,-0.130009,0.000000,0.000000,0.000000,-1,-0.293542,-0.570935,-1.320960,0.117098,0.136229,0.261921
"2018-06-06 23:18:25.925 +0000",1528327105.924690,1.420693,-0.512841,1.162967,0.861556,0.490655,-0.130302,0.000000,0.000000,0.000000,-1,-0.501833,-0.204321,-1.187112,0.196809,0.182898,0.254829
"2018-06-06 23:18:25.935 +0000",1528327105.934764,1.421958,-0.524349,1.167608,0.856079,0.500649,-0.128367,0.000000,0.000000,0.000000,-1,-0.568294,-0.093206,-1.026366,0.175507,0.084449,0.057566
"2018-06-06 23:18:25.945 +0000",1528327105.944838,1.426219,-0.533337,1.173303,0.852130,0.508410,-0.124064,0.000000,0.000000,0.000000,-1,-0.701556,0.352898,-0.688086,0.181149,0.062086,-0.089437
"2018-06-06 23:18:25.955 +0000",1528327105.954912,1.446310,-0.541081,1.187415,0.850519,0.515063,-0.106429,0.000000,0.000000,0.000000,-1,-1.255671,1.451571,-0.747084,0.356833,0.235151,0.577483
"2018-06-06 23:18:25.965 +0000",1528327105.964986,1.466180,-0.554469,1.190890,0.845531,0.526492,-0.088780,0.000000,0.000000,0.000000,-1,-0.254768,1.795472,-1.464755,-0.500317,0.173459,-0.427196
"2018-06-06 23:18:25.975 +0000",1528327105.975060,1.481385,-0.570415,1.189946,0.838314,0.539982,-0.075155,0.000000,0.000000,0.000000,-1,-0.048245,1.521821,-1.516580,-0.255077,-0.136616,-0.183207
"2018-06-06 23:18:25.985 +0000",1528327105.985134,1.495482,-0.580832,1.189768,0.833636,0.548720,-0.062904,0.000000,0.000000,0.000000,-1,-0.074148,1.357621,-0.858703,-0.012408,-0.241514,-0.157403
"2018-06-06 23:18:25.995 +0000",1528327105.995208,1.507356,-0.585822,1.189574,0.831581,0.552885,-0.052826,0.000000,0.000000,0.000000,-1,0.007673,1.139699,-0.407753,0.036873,-0.064451,-0.092758
"2018-06-06 23:18:26.005 +0000",1528327106.005281,1.517872,-0.588617,1.188366,0.830544,0.555211,-0.043997,0.000000,0.000000,0.000000,-1,0.107342,1.114080,-0.253163,-0.091378,-0.045064,-0.060343
"2018-06-06 23:18:26.015 +0000",1528327106.015356,1.529011,-0.589615,1.186522,0.830429,0.556041,-0.034720,0.000000,0.000000,0.000000,-1,0.145459,1.254892,-0.036636,-0.163223,-0.158015,-0.077692
"2018-06-06 23:18:26.025 +0000",1528327106.025430,1.543021,-0.587055,1.186005,0.832254,0.553911,-0.023122,0.000000,0.000000,0.000000,-1,0.011986,1.475720,0.356922,-0.038431,-0.176775,-0.037745
"2018-06-06 23:18:26.036 +0000",1528327106.035504,1.559903,-0.580051,1.187186,0.836385,0.548067,-0.009111,0.000000,0.000000,0.000000,-1,-0.112452,1.641430,0.811611,0.011256,-0.151567,-0.040388
"2018-06-06 23:18:26.046 +0000",1528327106.045578,1.576820,-0.568428,1.189097,0.842733,0.538308,0.005076,0.000000,0.000000,0.000000,-1,-0.164186,1.520800,1.271755,0.018199,-0.215417,-0.134166
"2018-06-06 23:18:26.056 +0000",1528327106.055652,1.590422,-0.552287,1.190076,0.851163,0.524636,0.016707,0.000000,0.000000,0.000000,-1,-0.069474,1.219597,1.695542,0.050906,-0.277687,-0.252043
"2018-06-06 23:18:26.066 +0000",1528327106.065726,1.600005,-0.534020,1.188511,0.860401,0.508997,0.025139,0.000000,0.000000,0.000000,-1,0.140811,0.983584,1.833132,-0.056507,-0.245722,-0.312874
"2018-06-06 23:18:26.076 +0000",1528327106.075799,1.607060,-0.515713,1.184835,0.869369,0.493156,0.031540,0.000000,0.000000,0.000000,-1,0.288036,0.844602,1.827012,-0.173782,-0.238730,-0.233032
"2018-06-06 23:18:26.086 +0000",1528327106.085874,1.610914,-0.497650,1.179367,0.878000,0.477362,0.035242,0.000000,0.000000,0.000000,-1,0.456593,0.558679,1.796752,-0.175455,-0.226675,-0.209223
"2018-06-06 23:18:26.096 +0000",1528327106.095948,1.608928,-0.480560,1.171128,0.886092,0.462276,0.033805,0.000000,0.000000,0.000000,-1,0.721468,0.042774,1.698912,-0.271254,-0.167674,-0.314353
"2018-06-06 23:18:26.106 +0000",1528327106.106022,1.599641,-0.464119,1.160360,0.893844,0.447635,0.025790,0.000000,0.000000,0.000000,-1,0.946086,-0.587657,1.659992,-0.288131,-0.164554,-0.359820
"2018-06-06 23:18:26.116 +0000",1528327106.116096,1.586106,-0.448179,1.148761,0.901132,0.433325,0.013797,0.000000,0.000000,0.000000,-1,0.996426,-0.875848,1.568684,-0.214075,-0.097952,-0.247928
"2018-06-06 23:18:26.126 +0000",1528327106.126170,1.572848,-0.434178,1.137698,0.907214,0.420664,0.001862,0.000000,0.000000,0.000000,-1,0.981415,-0.818896,1.327940,-0.228915,0.027288,-0.115174
"2018-06-06 23:18:26.136 +0000",1528327106.136244,1.560660,-0.422826,1.126489,0.911886,0.410340,-0.009243,0.000000,0.000000,0.000000,-1,1.028551,-0.738608,1.061305,-0.201223,0.028839,-0.155277
"2018-06-06 23:18:26.146 +0000",1528327106.146317,1.548800,-0.413467,1.114751,0.915512,0.401786,-0.020141,0.000000,0.000000,0.000000,-1,1.085724,-0.671728,0.856996,-0.103836,-0.059242,-0.185944
"2018-06-06 23:18:26.156 +0000",1528327106.156392,1.536468,-0.406036,1.102129,0.918153,0.394970,-0.031531,0.000000,0.000000,0.000000,-1,1.216565,-0.760528,0.653141,-0.078812,-0.083447,-0.171624
"2018-06-06 23:18:26.166 +0000",1528327106.166466,1.523367,-0.400221,1.087562,0.919939,0.389622,-0.043665,0.000000,0.000000,0.000000,-1,1.369911,-0.704613,0.509892,-0.066790,-0.177326,-0.140204
"2018-06-06 23:18:26.177 +0000",1528327106.176540,1.511287,-0.397700,1.071836,0.920322,0.387299,-0.054832,0.000000,0.000000,0.000000,-1,1.482646,-0.556310,0.035706,-0.195682,-0.127167,0.146461
"2018-06-06 23:18:26.187 +0000",1528327106.186614,1.501075,-0.396791,1.055563,0.920065,0.386460,-0.064252,0.000000,0.000000,0.000000,-1,1.477478,-0.326727,-0.003413,-0.105688,-0.042619,0.310712
"2018-06-06 23:18:26.197 +0000",1528327106.196688,1.492195,-0.394215,1.038035,0.920448,0.384083,-0.072497,0.000000,0.000000,0.000000,-1,1.724099,-0.183943,0.142725,0.181206,-0.010807,0.118243
"2018-06-06 23:18:26.207 +0000",1528327106.206762,1.484008,-0.395129,1.016500,0.919473,0.384927,-0.080001,0.000000,0.000000,0.000000,-1,2.025839,0.050526,-0.334870,-0.024118,0.126044,-0.202821
"2018-06-06 23:18:26.217 +0000",1528327106.216835,1.476325,-0.393322,0.992122,0.919523,0.383259,-0.087128,0.000000,0.000000,0.000000,-1,2.307359,0.275863,0.043768,0.518817,-0.564625,-0.482498
"2018-06-06 23:18:26.227 +0000",1528327106.226910,1.476886,-0.392271,0.968068,0.919972,0.382288,-0.086650,0.000000,0.000000,0.000000,-1,2.101944,1.178373,-0.126315,-0.183033,0.171804,-0.289327
"2018-06-06 23:18:26.237 +0000",1528327106.236984,1.480342,-0.391280,0.950083,0.920642,0.381372,-0.083504,0.000000,0.000000,0.000000,-1,1.524889,0.895363,-0.036539,-0.215259,0.190711,-0.010597
"2018-06-06 23:18:26.247 +0000",1528327106.247058,1.478931,-0.389987,0.934860,0.921014,0.380177,-0.084848,0.000000,0.000000,0.000000,-1,1.390633,0.274530,0.015745,-0.147164,0.150677,-0.337714
"2018-06-06 23:18:26.257 +0000",1528327106.257132,1.471032,-0.388921,0.919841,0.920718,0.379190,-0.092161,0.000000,0.000000,0.000000,-1,1.377180,-0.386024,-0.065743,-0.270297,0.155371,-0.445482
"2018-06-06 23:18:26.267 +0000",1528327106.267206,1.457515,-0.390972,0.905271,0.918613,0.381087,-0.104509,0.000000,0.000000,0.000000,-1,1.280892,-0.898408,-0.457473,-0.478229,0.152528,-0.304305
"2018-06-06 23:18:26.277 +0000",1528327106.277280,1.427922,-0.394763,0.886300,0.913682,0.384590,-0.131437,0.000000,0.000000,0.000000,-1,1.166013,-1.173431,-0.919461,-0.503419,0.191994,-0.140276
"2018-06-06 23:18:26.287 +0000",1528327106.287354,1.410826,-0.403633,0.872503,0.907898,0.392762,-0.146488,0.000000,0.000000,0.000000,-1,1.102050,-1.151010,-1.073067,-0.331268,0.201476,-0.070675
"2018-06-06 23:18:26.297 +0000",1528327106.297429,1.393229,-0.412029,0.858480,0.901902,0.400470,-0.161853,0.000000,0.000000,0.000000,-1,1.133221,-1.209321,-1.021677,-0.170121,0.262693,-0.111524
"2018-06-06 23:18:26.308 +0000",1528327106.307503,1.376175,-0.419904,0.843547,0.895889,0.407673,-0.176595,0.000000,0.000000,0.000000,-1,1.198208,-1.027987,-1.026676,-0.102691,0.233577,-0.085154
"2018-06-06 23:18:26.318 +0000",1528327106.317577,1.351564,-0.426611,0.824026,0.888583,0.413788,-0.197988,0.000000,0.000000,0.000000,-1,1.100329,-0.518738,-1.063694,-0.030826,0.212784,0.057363
"2018-06-06 23:18:26.328 +0000",1528327106.327651,1.345799,-0.435275,0.811250,0.883899,0.421660,-0.202300,0.000000,0.000000,0.000000,-1,0.869963,0.110881,-1.096831,0.029141,0.227128,0.185576
"2018-06-06 23:18:26.338 +0000",1528327106.337725,1.346638,-0.444375,0.801178,0.880291,0.429894,-0.200697,0.000000,0.000000,0.000000,-1,0.620391,0.623859,-1.076481,0.151905,0.233940,0.239958
"2018-06-06 23:18:26.348 +0000",1528327106.347799,1.352196,-0.453221,0.793580,0.877646,0.437863,-0.194969,0.000000,0.000000,0.000000,-1,0.422872,0.943421,-0.971838,0.268045,0.219516,0.208778
"2018-06-06 23:18:26.358 +0000",1528327106.357872,1.360168,-0.460942,0.788183,0.875840,0.444792,-0.187254,0.000000,0.000000,0.000000,-1,0.272411,1.025760,-0.810982,0.299835,0.226121,0.063307
"2018-06-06 23:18:26.368 +0000",1528327106.367947,1.367713,-0.467078,0.784441,0.874538,0.450279,-0.180087,0.000000,0.000000,0.000000,-1,0.188086,0.864432,-0.615491,0.312535,0.208244,-0.113431
"2018-06-06 23:18:26.378 +0000",1528327106.378021,1.372187,-0.472244,0.781042,0.873043,0.454886,-0.175711,0.000000,0.000000,0.000000,-1,0.197478,0.484400,-0.560685,0.151432,0.188821,-0.250040
"2018-06-06 23:18:26.388 +0000",1528327106.388095,1.371513,-0.477609,0.777212,0.870520,0.459657,-0.175813,0.000000,0.000000,0.000000,-1,0.239228,-0.001619,-0.603069,0.089151,0.121306,-0.372282
"2018-06-06 23:18:26.398 +0000",1528327106.398169,1.366524,-0.483106,0.772668,0.867144,0.464532,-0.179640,0.000000,0.000000,0.000000,-1,0.298495,-0.377940,-0.615056,0.088804,-0.000375,-0.388125
"2018-06-06 23:18:26.408 +0000",1528327106.408243,1.358217,-0.489301,0.767682,0.862793,0.470009,-0.186225,0.000000,0.000000,0.000000,-1,0.288156,-0.650792,-0.739525,0.096070,-0.053886,-0.279580
"2018-06-06 23:18:26.418 +0000",1528327106.418317,1.347511,-0.497977,0.762664,0.856741,0.477649,-0.194542,0.000000,0.000000,0.000000,-1,0.232761,-0.867123,-1.021846,0.008707,-0.016834,-0.117653
"2018-06-06 23:18:26.428 +0000",1528327106.428391,1.335830,-0.510169,0.757633,0.848683,0.488324,-0.203165,0.000000,0.000000,0.000000,-1,0.116732,-0.902240,-1.363738,-0.189870,-0.081571,-0.027212
"2018-06-06 23:18:26.438 +0000",1528327106.438465,1.329250,-0.525880,0.753908,0.839774,0.501974,-0.206884,0.000000,0.000000,0.000000,-1,-0.135788,-0.269393,-1.658196,-0.284522,-0.030355,0.124273
"2018-06-06 23:18:26.449 +0000",1528327106.448539,1.333366,-0.545177,0.753685,0.831048,0.518569,-0.201109,0.000000,0.000000,0.000000,-1,-0.533696,0.637394,-1.928937,-0.211800,0.044587,0.285811
"2018-06-06 23:18:26.459 +0000",1528327106.458613,1.346238,-0.566144,0.755537,0.822785,0.536382,-0.187933,0.000000,0.000000,0.000000,-1,-0.623218,1.328966,-1.982654,-0.145737,-0.091695,0.188741
"2018-06-06 23:18:26.469 +0000",1528327106.468687,1.360748,-0.584860,0.756347,0.815463,0.552083,-0.173851,0.000000,0.000000,0.000000,-1,-0.397455,1.362464,-1.705557,0.011273,-0.229634,-0.024055
"2018-06-06 23:18:26.479 +0000",1528327106.478761,1.370206,-0.597633,0.755571,0.810094,0.562687,-0.164712,0.000000,0.000000,0.000000,-1,-0.141160,0.822706,-1.093521,0.410045,-0.166004,0.008966
"2018-06-06 23:18:26.489 +0000",1528327106.488835,1.372729,-0.606760,0.754042,0.805438,0.570208,-0.161651,0.000000,0.000000,0.000000,-1,-0.044300,0.181097,-0.907371,0.439145,-0.137195,0.172728
"2018-06-06 23:18:26.499 +0000",1528327106.498909,1.370857,-0.617831,0.752456,0.798898,0.579268,-0.161894,0.000000,0.000000,0.000000,-1,-0.114271,-0.142841,-1.193199,0.102927,-0.134047,0.222823
"2018-06-06 23:18:26.509 +0000",1528327106.508983,1.369417,-0.633581,0.750809,0.789626,0.592034,-0.161199,0.000000,0.000000,0.000000,-1,-0.200892,0.001725,-1.693831,-0.015639,-0.140679,0.174108
"2018-06-06 23:18:26.519 +0000",1528327106.519057,1.369242,-0.652786,0.748140,0.778313,0.607402,-0.159032,0.000000,0.000000,0.000000,-1,-0.156066,0.220283,-1.950377,0.318275,-0.085475,-0.005519
"2018-06-06 23:18:26.529 +0000",1528327106.529130,1.372745,-0.673139,0.744468,0.766584,0.623443,-0.153840,0.000000,0.000000,0.000000,-1,-0.117890,0.688480,-2.055591,0.563677,-0.125503,-0.205444
"2018-06-06 23:18:26.539 +0000",1528327106.539205,1.379238,-0.691982,0.741763,0.755898,0.638065,-0.146596,0.000000,0.000000,0.000000,-1,-0.165361,0.792530,-1.767982,0.492073,-0.197421,-0.402644
"2018-06-06 23:18:26.549 +0000",1528327106.549279,1.383194,-0.706890,0.739673,0.747043,0.649472,-0.141814,0.000000,0.000000,0.000000,-1,-0.104765,0.422334,-1.406706,0.476712,-0.275281,-0.528413
"2018-06-06 23:18:26.559 +0000",1528327106.559353,1.381216,-0.720407,0.737012,0.738072,0.659691,-0.141625,0.000000,0.000000,0.000000,-1,-0.038363,-0.188032,-1.361305,0.192135,-0.225944,-0.407814
"2018-06-06 23:18:26.569 +0000",1528327106.569427,1.373959,-0.733446,0.734137,0.728526,0.669434,-0.145283,0.000000,0.000000,0.000000,-1,-0.051180,-0.607749,-1.281823,0.139791,-0.090546,-0.324337
"2018-06-06 23:18:26.580 +0000",1528327106.579501,1.365476,-0.745817,0.732025,0.719105,0.678572,-0.149758,0.000000,0.000000,0.000000,-1,-0.100832,-0.722271,-1.230412,0.249935,-0.060820,-0.210991
"2018-06-06 23:18:26.590 +0000",1528327106.589575,1.355861,-0.758276,0.729459,0.709316,0.687671,-0.154849,0.000000,0.000000,0.000000,-1,-0.062735,-0.795603,-1.258684,0.225635,-0.088626,-0.172772
"2018-06-06 23:18:26.600 +0000",1528327106.599648,1.344837,-0.771050,0.725340,0.698948,0.696889,-0.160678,0.000000,0.000000,0.000000,-1,0.049049,-0.813718,-1.314926,0.234997,-0.106724,-0.125516
"2018-06-06 23:18:26.610 +0000",1528327106.609723,1.331290,-0.783110,0.717479,0.688492,0.705487,-0.168126,0.000000,0.000000,0.000000,-1,0.347049,-0.793281,-1.278977,0.333435,-0.176022,-0.147487
"2018-06-06 23:18:26.620 +0000",1528327106.619797,1.312694,-0.793734,0.704520,0.677961,0.712977,-0.178975,0.000000,0.000000,0.000000,-1,0.716616,-1.005413,-1.233112,0.404604,-0.246805,-0.143916
"2018-06-06 23:18:26.630 +0000",1528327106.629871,1.287510,-0.802036,0.686170,0.667533,0.718773,-0.194329,0.000000,0.000000,0.000000,-1,1.090715,-1.242089,-1.090521,0.410912,-0.234536,-0.127296
"2018-06-06 23:18:26.640 +0000",1528327106.639946,1.260527,-0.807981,0.665097,0.657966,0.722894,-0.210960,0.000000,0.000000,0.000000,-1,1.241932,-1.129130,-0.963613,0.285118,-0.183328,-0.038643
"2018-06-06 23:18:26.650 +0000",1528327106.650020,1.236595,-0.811800,0.643759,0.650117,0.725527,-0.225738,0.000000,0.000000,0.000000,-1,1.266275,-0.721525,-0.764564,0.226042,-0.095934,0.028640
"2018-06-06 23:18:26.660 +0000",1528327106.660094,1.218387,-0.812454,0.623630,0.645454,0.725977,-0.237373,0.000000,0.000000,0.000000,-1,1.270716,-0.248619,-0.443732,0.314156,-0.068354,0.046791
"2018-06-06 23:18:26.670 +0000",1528327106.670167,1.205403,-0.809976,0.605904,0.643996,0.724271,-0.246375,0.000000,0.000000,0.000000,-1,1.197445,0.054935,-0.103853,0.376512,-0.087049,-0.001672
"2018-06-06 23:18:26.680 +0000",1528327106.680242,1.187211,-0.792641,0.584560,0.650954,0.712210,-0.262709,0.000000,0.000000,0.000000,-1,1.110844,0.282794,0.476781,0.432680,-0.083700,-0.082140
"2018-06-06 23:18:26.690 +0000",1528327106.690316,1.183997,-0.779395,0.575646,0.658786,0.702849,-0.268335,0.000000,0.000000,0.000000,-1,1.065737,0.298506,1.151359,0.444043,-0.121642,-0.206625
"2018-06-06 23:18:26.700 +0000",1528327106.700390,1.181782,-0.760586,0.569962,0.670305,0.689346,-0.274760,0.000000,0.000000,0.000000,-1,1.091067,0.118420,1.704735,0.367842,-0.089538,-0.253683
"2018-06-06 23:18:26.710 +0000",1528327106.710464,1.179508,-0.737474,0.566419,0.684226,0.672420,-0.282286,0.000000,0.000000,0.000000,-1,1.107935,0.015735,2.119596,0.359903,-0.014522,-0.191286
"2018-06-06 23:18:26.721 +0000",1528327106.720538,1.171056,-0.703928,0.560207,0.702207,0.647217,-0.296673,0.000000,0.000000,0.000000,-1,0.911343,0.070533,2.272947,0.276583,0.103287,-0.033924
"2018-06-06 23:18:26.731 +0000",1528327106.730612,1.173244,-0.682654,0.562996,0.715389,0.630854,-0.300400,0.000000,0.000000,0.000000,-1,0.524313,0.020375,1.934860,-0.102520,0.246801,0.105728
"2018-06-06 23:18:26.741 +0000",1528327106.740686,1.175227,-0.664109,0.567826,0.726656,0.616357,-0.303437,0.000000,0.000000,0.000000,-1,0.340296,-0.169690,1.848677,-0.190553,0.095282,0.059632
"2018-06-06 23:18:26.751 +0000",1528327106.750760,1.174561,-0.644519,0.573474,0.737452,0.600814,-0.308522,0.000000,0.000000,0.000000,-1,0.350925,-0.485388,2.008005,0.002294,-0.022292,-0.086833
"2018-06-06 23:18:26.761 +0000",1528327106.760834,1.164461,-0.617146,0.574417,0.749128,0.578710,-0.322336,0.000000,0.000000,0.000000,-1,0.417538,-0.538255,2.093750,-0.024687,-0.058980,-0.120703
"2018-06-06 23:18:26.771 +0000",1528327106.770908,1.162628,-0.595285,0.578602,0.759968,0.560745,-0.328653,0.000000,0.000000,0.000000,-1,0.596677,-0.366671,2.133638,-0.095875,-0.066650,-0.103522
"2018-06-06 23:18:26.781 +0000",1528327106.780982,1.160791,-0.573162,0.580671,0.770554,0.542291,-0.334912,0.000000,0.000000,0.000000,-1,0.752623,-0.314345,2.062440,-0.142059,0.037497,-0.052829
"2018-06-06 23:18:26.791 +0000",1528327106.791056,1.156258,-0.550380,0.580637,0.780135,0.523011,-0.343289,0.000000,0.000000,0.000000,-1,0.974230,-0.474094,2.084057,-0.189757,0.087615,-0.120212
"2018-06-06 23:18:26.801 +0000",1528327106.801130,1.142950,-0.521346,0.574342,0.788986,0.498048,-0.359791,0.000000,0.000000,0.000000,-1,1.249203,-0.435004,2.107205,-0.151763,0.089919,-0.150891
"2018-06-06 23:18:26.811 +0000",1528327106.811204,1.137983,-0.496204,0.570019,0.798306,0.476091,-0.368842,0.000000,0.000000,0.000000,-1,1.417064,-0.242433,2.108456,-0.173672,0.118223,-0.020334
"2018-06-06 23:18:26.821 +0000",1528327106.821278,1.133814,-0.471899,0.564098,0.807009,0.454579,-0.376954,0.000000,0.000000,0.000000,-1,1.504660,-0.111784,1.901037,-0.273134,0.170375,0.102829
"2018-06-06 23:18:26.831 +0000",1528327106.831352,1.128116,-0.450210,0.556388,0.813567,0.435155,-0.385679,0.000000,0.000000,0.000000,-1,1.536763,-0.290353,1.572372,-0.410506,0.184031,0.165311
"2018-06-06 23:18:26.841 +0000",1528327106.841426,1.113721,-0.428165,0.545340,0.816342,0.415202,-0.401487,0.000000,0.000000,0.000000,-1,1.496304,-0.445582,1.389153,-0.346890,0.128972,0.130536
"2018-06-06 23:18:26.852 +0000",1528327106.851500,1.107213,-0.409720,0.537409,0.820424,0.398352,-0.410146,0.000000,0.000000,0.000000,-1,1.438089,-0.277368,1.289741,-0.189549,0.019113,0.065221
"2018-06-06 23:18:26.862 +0000",1528327106.861575,1.103104,-0.393079,0.529602,0.824535,0.383034,-0.416444,0.000000,0.000000,0.000000,-1,1.371976,-0.041903,1.116323,-0.227367,-0.010979,0.050035
"2018-06-06 23:18:26.872 +0000",1528327106.871649,1.103074,-0.378182,0.522186,0.829524,0.369231,-0.418996,0.000000,0.000000,0.000000,-1,1.231946,0.367779,0.972623,-0.214473,-0.044830,0.106618
"2018-06-06 23:18:26.882 +0000",1528327106.881723,1.102137,-0.364101,0.513509,0.833687,0.356109,-0.422080,0.000000,0.000000,0.000000,-1,1.068866,0.888359,0.807786,-0.156197,-0.027709,0.234152
"2018-06-06 23:18:26.892 +0000",1528327106.891797,1.112259,-0.353049,0.508064,0.841394,0.345760,-0.415336,0.000000,0.000000,0.000000,-1,0.901968,1.270175,0.746891,-0.151194,-0.041393,0.217613
"2018-06-06 23:18:26.902 +0000",1528327106.901871,1.124391,-0.343022,0.503890,0.849456,0.336335,-0.406574,0.000000,0.000000,0.000000,-1,0.757228,1.328096,0.712971,-0.165359,-0.117707,0.042652
"2018-06-06 23:18:26.912 +0000",1528327106.911945,1.137063,-0.334224,0.500443,0.857192,0.328036,-0.397007,0.000000,0.000000,0.000000,-1,0.631748,1.403839,0.630654,-0.179747,-0.137103,-0.080822
"2018-06-06 23:18:26.922 +0000",1528327106.922019,1.144293,-0.325228,0.495523,0.862691,0.319525,-0.392003,0.000000,0.000000,0.000000,-1,0.604393,1.374082,0.640311,-0.139654,-0.082647,-0.100185
"2018-06-06 23:18:26.932 +0000",1528327106.932093,1.155912,-0.317524,0.492645,0.869415,0.312215,-0.382934,0.000000,0.000000,0.000000,-1,0.523221,1.199632,0.563618,-0.143203,-0.027746,-0.161286
"2018-06-06 23:18:26.942 +0000",1528327106.942167,1.167081,-0.311730,0.491210,0.875286,0.306706,-0.373904,0.000000,0.000000,0.000000,-1,0.292124,1.150124,0.436002,-0.234402,0.017177,-0.044416
"2018-06-06 23:18:26.952 +0000",1528327106.952241,1.179353,-0.309120,0.491787,0.880546,0.304220,-0.363439,0.000000,0.000000,0.000000,-1,-0.041143,1.232549,0.192833,-0.359443,0.036921,0.029104
"2018-06-06 23:18:26.962 +0000",1528327106.962315,1.189191,-0.310865,0.493681,0.883584,0.305883,-0.354561,0.000000,0.000000,0.000000,-1,-0.489996,1.540884,-0.072002,-0.400140,0.064875,0.170967
"2018-06-06 23:18:26.972 +0000",1528327106.972389,1.209668,-0.314600,0.500797,0.889584,0.309436,-0.335988,0.000000,0.000000,0.000000,-1,-0.813712,1.830928,-0.080098,-0.189099,0.076519,0.295598
"2018-06-06 23:18:26.982 +0000",1528327106.982463,1.227684,-0.317568,0.508710,0.894623,0.312257,-0.319598,0.000000,0.000000,0.000000,-1,-0.776094,1.453098,-0.008139,0.115478,-0.055741,-0.248670
"2018-06-06 23:18:26.993 +0000",1528327106.992537,1.244354,-0.320676,0.516132,0.898903,0.315208,-0.304328,0.000000,0.000000,0.000000,-1,-0.766023,1.454562,-0.088831,0.013542,-0.007270,-0.330881
"2018-06-06 23:18:27.003 +0000",1528327107.002611,1.254563,-0.324436,0.520977,0.900831,0.318774,-0.294764,0.000000,0.000000,0.000000,-1,-0.633383,1.244212,-0.101579,-0.039670,0.057660,-0.187993
"2018-06-06 23:18:27.013 +0000",1528327107.012685,1.268484,-0.327147,0.526812,0.904018,0.321343,-0.281938,0.000000,0.000000,0.000000,-1,-0.679563,1.317691,-0.115243,0.104283,0.059028,-0.320464
"2018-06-06 23:18:27.023 +0000",1528327107.022759,1.306298,-0.337616,0.541641,0.910733,0.331239,-0.246667,0.000000,0.000000,0.000000,-1,-2.301484,4.523611,-1.031560,-0.243756,0.218611,0.818185
"2018-06-06 23:18:27.033 +0000",1528327107.032833,1.382992,-0.363288,0.574709,0.918297,0.355349,-0.174517,0.000000,0.000000,0.000000,-1,-3.671176,5.947135,-1.610509,-0.731865,0.809369,2.421847
"2018-06-06 23:18:27.043 +0000",1528327107.042908,1.401505,-0.374529,0.588695,0.917374,0.365834,-0.156804,0.000000,0.000000,0.000000,-1,-0.732729,0.522135,-0.753141,1.209899,-0.703420,-2.847224
"2018-06-06 23:18:27.053 +0000",1528327107.052982,1.394334,-0.384809,0.581394,0.912476,0.375382,-0.162710,0.000000,0.000000,0.000000,-1,0.643701,-0.354017,-1.119183,-0.171555,0.237900,-2.377512
"2018-06-06 23:18:27.063 +0000",1528327107.063056,1.389898,-0.393175,0.578089,0.908623,0.383123,-0.166186,0.000000,0.000000,0.000000,-1,-0.041057,-0.358133,-0.853018,0.018028,-0.536489,0.193590
"2018-06-06 23:18:27.073 +0000",1528327107.073130,1.386804,-0.404614,0.579976,0.903737,0.393664,-0.168183,0.000000,0.000000,0.000000,-1,-0.460891,-0.371170,-1.164032,-0.223287,-0.188982,0.248399
"2018-06-06 23:18:27.083 +0000",1528327107.083204,1.377534,-0.418435,0.581161,0.896714,0.406331,-0.175491,0.000000,0.000000,0.000000,-1,-0.558490,-0.569623,-1.287009,-0.189713,-0.058080,-0.069077
"2018-06-06 23:18:27.093 +0000",1528327107.093278,1.371343,-0.432439,0.583420,0.889945,0.419087,-0.179894,0.000000,0.000000,0.000000,-1,-0.443442,-0.738141,-1.339394,-0.120475,0.006252,-0.215888
"2018-06-06 23:18:27.103 +0000",1528327107.103352,1.364481,-0.446657,0.584634,0.882768,0.431953,-0.184758,0.000000,0.000000,0.000000,-1,-0.377119,-0.722497,-1.361013,-0.173280,0.084938,-0.117092
"2018-06-06 23:18:27.113 +0000",1528327107.113426,1.357815,-0.460079,0.585256,0.875770,0.444019,-0.189395,0.000000,0.000000,0.000000,-1,-0.309668,-0.693102,-1.257820,-0.046165,0.158810,-0.030316
"2018-06-06 23:18:27.123 +0000",1528327107.123500,1.344910,-0.472079,0.582177,0.867998,0.454739,-0.199473,0.000000,0.000000,0.000000,-1,-0.186215,-0.717188,-1.191483,0.009245,0.144825,-0.080800
"2018-06-06 23:18:27.134 +0000",1528327107.133574,1.336268,-0.484104,0.579849,0.860861,0.465415,-0.205681,0.000000,0.000000,0.000000,-1,-0.026303,-0.752846,-1.220995,-0.134146,0.041985,-0.133430
"2018-06-06 23:18:27.144 +0000",1528327107.143648,1.326079,-0.495757,0.574764,0.853400,0.475697,-0.213113,0.000000,0.000000,0.000000,-1,0.220668,-0.776245,-1.236688,-0.140647,0.022090,-0.196829
"2018-06-06 23:18:27.154 +0000",1528327107.153722,1.314062,-0.507136,0.566632,0.845487,0.485675,-0.221964,0.000000,0.000000,0.000000,-1,0.465883,-0.763215,-1.301750,-0.121107,0.085934,-0.200811
"2018-06-06 23:18:27.164 +0000",1528327107.163796,1.297208,-0.519162,0.552910,0.835942,0.496153,-0.234587,0.000000,0.000000,0.000000,-1,0.611184,-0.506132,-1.516464,-0.278737,0.052904,-0.141878
"2018-06-06 23:18:27.174 +0000",1528327107.173870,1.287152,-0.533802,0.540311,0.826478,0.508810,-0.240922,0.000000,0.000000,0.000000,-1,0.639066,-0.331631,-1.749436,-0.307954,0.021173,-0.104949
"2018-06-06 23:18:27.184 +0000",1528327107.183944,1.278144,-0.550759,0.527547,0.815895,0.523334,-0.245832,0.000000,0.000000,0.000000,-1,0.521030,-0.214607,-1.985467,-0.297768,-0.018161,-0.050051
"2018-06-06 23:18:27.194 +0000",1528327107.194018,1.270058,-0.571388,0.515012,0.803397,0.540800,-0.249170,0.000000,0.000000,0.000000,-1,0.382996,-0.116857,-2.350586,-0.271613,-0.037931,-0.021475
"2018-06-06 23:18:27.204 +0000",1528327107.204092,1.256473,-0.592432,0.499140,0.788939,0.558380,-0.256485,0.000000,0.000000,0.000000,-1,0.328768,-0.084944,-2.405226,-0.004210,-0.009903,-0.078171
"2018-06-06 23:18:27.214 +0000",1528327107.214167,1.247497,-0.614187,0.486479,0.774901,0.576294,-0.259635,0.000000,0.000000,0.000000,-1,0.302342,-0.202631,-2.368937,0.188142,-0.081467,-0.123285
"2018-06-06 23:18:27.224 +0000",1528327107.224241,1.237537,-0.635300,0.473030,0.760608,0.593419,-0.263300,0.000000,0.000000,0.000000,-1,0.372358,-0.199336,-2.322834,0.219495,-0.146977,-0.126165
"2018-06-06 23:18:27.234 +0000",1528327107.234315,1.226716,-0.655252,0.458823,0.746418,0.609359,-0.267467,0.000000,0.000000,0.000000,-1,0.406151,-0.249141,-2.203660,0.274655,-0.157897,-0.114369
"2018-06-06 23:18:27.244 +0000",1528327107.244389,1.209898,-0.671429,0.441833,0.732495,0.622106,-0.276465,0.000000,0.000000,0.000000,-1,0.364693,-0.300623,-1.996115,0.318393,-0.165136,-0.057611
"2018-06-06 23:18:27.254 +0000",1528327107.254463,1.199904,-0.687248,0.429405,0.720432,0.634413,-0.280169,0.000000,0.000000,0.000000,-1,0.331150,-0.181008,-1.746141,0.343334,-0.207762,-0.035077
"2018-06-06 23:18:27.265 +0000",1528327107.264537,1.191351,-0.700060,0.417652,0.710401,0.644264,-0.283287,0.000000,0.000000,0.000000,-1,0.388496,-0.082276,-1.429745,0.340243,-0.215415,-0.089669
"2018-06-06 23:18:27.275 +0000",1528327107.274611,1.183449,-0.710088,0.406032,0.702123,0.651900,-0.286436,0.000000,0.000000,0.000000,-1,0.450898,-0.021506,-1.219961,0.208384,-0.201751,-0.117952
"2018-06-06 23:18:27.285 +0000",1528327107.284685,1.171024,-0.718064,0.391259,0.693698,0.657928,-0.293105,0.000000,0.000000,0.000000,-1,0.368739,0.028137,-1.332571,-0.119007,-0.153014,-0.054673
"2018-06-06 23:18:27.295 +0000",1528327107.294759,1.163918,-0.730209,0.379843,0.684209,0.667026,-0.294842,0.000000,0.000000,0.000000,-1,0.294254,0.052715,-1.483995,-0.220418,-0.126010,-0.049503
"2018-06-06 23:18:27.305 +0000",1528327107.304833,1.156710,-0.743914,0.367563,0.673633,0.677173,-0.296061,0.000000,0.000000,0.000000,-1,0.284932,0.120332,-1.646199,-0.218158,-0.146747,-0.111456
"2018-06-06 23:18:27.315 +0000",1528327107.314907,1.149509,-0.758604,0.354456,0.662334,0.687909,-0.296803,0.000000,0.000000,0.000000,-1,0.272912,0.190911,-1.730942,-0.130107,-0.167584,-0.106578
"2018-06-06 23:18:27.325 +0000",1528327107.324981,1.138296,-0.771065,0.337664,0.651131,0.696899,-0.300595,0.000000,0.000000,0.000000,-1,0.240822,0.336059,-1.810044,0.017525,-0.163910,-0.069736
"2018-06-06 23:18:27.335 +0000",1528327107.335055,1.131521,-0.788312,0.321792,0.638105,0.709164,-0.299843,0.000000,0.000000,0.000000,-1,0.324088,0.470494,-2.137916,-0.101682,-0.226040,-0.093498
"2018-06-06 23:18:27.345 +0000",1528327107.345129,1.123219,-0.805096,0.305682,0.624774,0.720897,-0.299936,0.000000,0.000000,0.000000,-1,0.271393,0.247239,-1.813600,-0.101398,-0.224727,-0.075552
"2018-06-06 23:18:27.355 +0000",1528327107.355203,1.116960,-0.816814,0.293762,0.615250,0.728968,-0.300116,0.000000,0.000000,0.000000,-1,0.209370,0.272204,-1.262655,0.626617,-0.120616,0.062033
"2018-06-06 23:18:27.365 +0000",1528327107.365277,1.110824,-0.820284,0.282708,0.611126,0.731340,-0.302761,0.000000,0.000000,0.000000,-1,0.188214,0.405965,-0.712563,0.684544,-0.224870,0.061779
"2018-06-06 23:18:27.375 +0000",1528327107.375352,1.110476,-0.823682,0.277094,0.608791,0.733653,-0.301867,0.000000,0.000000,0.000000,-1,0.185949,0.347610,-0.410471,0.448949,-0.219371,-0.045575
"2018-06-06 23:18:27.385 +0000",1528327107.385426,1.109936,-0.825364,0.272809,0.607522,0.734795,-0.301647,0.000000,0.000000,0.000000,-1,0.184745,0.234919,-0.239768,0.230247,-0.142342,-0.117283
"2018-06-06 23:18:27.396 +0000",1528327107.395500,1.109469,-0.825601,0.269472,0.607225,0.734956,-0.301853,0.000000,0.000000,0.000000,-1,0.196179,0.189281,-0.081808,0.226714,-0.122025,-0.144497
"2018-06-06 23:18:27.406 +0000",1528327107.405574,1.106358,-0.821492,0.263889,0.608978,0.732163,-0.305091,0.000000,0.000000,0.000000,-1,0.189132,0.310770,0.000311,0.195618,-0.093582,-0.128258
"2018-06-06 23:18:27.416 +0000",1528327107.415648,1.108921,-0.820809,0.262795,0.610205,0.731698,-0.303752,0.000000,0.000000,0.000000,-1,0.061743,0.326728,0.037221,0.165292,0.007362,-0.074575
"2018-06-06 23:18:27.426 +0000",1528327107.425722,1.111311,-0.820701,0.262795,0.611001,0.731624,-0.302328,0.000000,0.000000,0.000000,-1,-0.012354,0.199375,-0.009232,0.143730,0.094823,-0.144770
"2018-06-06 23:18:27.436 +0000",1528327107.435796,1.112794,-0.821377,0.263559,0.611004,0.732085,-0.301202,0.000000,0.000000,0.000000,-1,-0.101310,0.060913,-0.034171,0.080219,0.139558,-0.146231
"2018-06-06 23:18:27.446 +0000",1528327107.445870,1.111120,-0.818925,0.262860,0.612106,0.730412,-0.303021,0.000000,0.000000,0.000000,-1,-0.152199,0.062710,0.027262,0.128037,0.139950,-0.057758
"2018-06-06 23:18:27.456 +0000",1528327107.455944,1.113828,-0.818859,0.264993,0.612968,0.730367,-0.301383,0.000000,0.000000,0.000000,-1,-0.118034,0.131730,0.083318,0.099252,0.139643,-0.068826
"2018-06-06 23:18:27.466 +0000",1528327107.466018,1.116349,-0.818313,0.266764,0.614083,0.729994,-0.300011,0.000000,0.000000,0.000000,-1,-0.069859,0.107623,0.104651,-0.003732,0.183306,-0.085517
"2018-06-06 23:18:27.476 +0000",1528327107.476092,1.117184,-0.817394,0.267496,0.614936,0.729366,-0.299793,0.000000,0.000000,0.000000,-1,0.020593,-0.000794,0.101977,-0.084754,0.219014,-0.114331
"2018-06-06 23:18:27.486 +0000",1528327107.486166,1.111833,-0.813622,0.263560,0.615785,0.726779,-0.304296,0.000000,0.000000,0.000000,-1,0.169146,-0.102277,0.055089,-0.108705,0.274289,-0.135630
"2018-06-06 23:18:27.496 +0000",1528327107.496240,1.107763,-0.812572,0.260252,0.615224,0.726058,-0.307140,0.000000,0.000000,0.000000,-1,0.264436,-0.193858,-0.032523,-0.154378,0.293000,-0.103673
"2018-06-06 23:18:27.506 +0000",1528327107.506314,1.102695,-0.812524,0.256345,0.613691,0.726025,-0.310270,0.000000,0.000000,0.000000,-1,0.219096,-0.219867,-0.143286,-0.183256,0.266422,0.014509
"2018-06-06 23:18:27.516 +0000",1528327107.516388,1.099135,-0.813189,0.253262,0.612152,0.726482,-0.312233,0.000000,0.000000,0.000000,-1,0.149654,-0.063063,-0.146974,-0.125473,0.254215,0.137169
"2018-06-06 23:18:27.526 +0000",1528327107.526462,1.094054,-0.811561,0.247483,0.611608,0.725362,-0.315881,0.000000,0.000000,0.000000,-1,0.182006,0.084091,-0.138015,-0.031194,0.258738,0.095911
"2018-06-06 23:18:27.537 +0000",1528327107.536536,1.092599,-0.812277,0.244088,0.610687,0.725855,-0.316532,0.000000,0.000000,0.000000,-1,0.168740,0.091954,-0.189592,-0.095901,0.259069,0.101627
"2018-06-06 23:18:27.547 +0000",1528327107.546611,1.090563,-0.813680,0.240363,0.609137,0.726819,-0.317304,0.000000,0.000000,0.000000,-1,0.159891,0.073587,-0.265996,-0.180472,0.211428,0.112791
"2018-06-06 23:18:27.557 +0000",1528327107.556685,1.088685,-0.815934,0.236549,0.607087,0.728366,-0.317687,0.000000,0.000000,0.000000,-1,0.106785,0.100051,-0.329261,-0.138947,0.234937,0.115996
"2018-06-06 23:18:27.567 +0000",1528327107.566759,1.085692,-0.817414,0.231897,0.605179,0.729379,-0.319000,0.000000,0.000000,0.000000,-1,-0.053968,0.226983,-0.338204,-0.060455,0.159491,0.201782
"2018-06-06 23:18:27.577 +0000",1528327107.576833,1.088970,-0.821224,0.232337,0.603754,0.731980,-0.315724,0.000000,0.000000,0.000000,-1,-0.250601,0.314184,-0.320290,-0.070551,0.103378,0.241871
"2018-06-06 23:18:27.587 +0000",1528327107.586907,1.094171,-0.825989,0.235010,0.602282,0.735218,-0.310976,0.000000,0.000000,0.000000,-1,-0.416406,0.312704,-0.339276,-0.111788,0.074428,0.207903
"2018-06-06 23:18:27.597 +0000",1528327107.596981,1.098299,-0.831636,0.238745,0.599854,0.739035,-0.306592,0.000000,0.000000,0.000000,-1,-0.495476,0.059178,-0.406525,-0.202057,0.044016,0.110807
"2018-06-06 23:18:27.607 +0000",1528327107.607055,1.097037,-0.836902,0.241066,0.595995,0.742572,-0.305569,0.000000,0.000000,0.000000,-1,-0.605218,-0.187957,-0.446791,-0.235888,-0.001559,0.084485
"2018-06-06 23:18:27.617 +0000",1528327107.617129,1.098211,-0.843511,0.246263,0.591971,0.746982,-0.302629,0.000000,0.000000,0.000000,-1,-0.605299,-0.317605,-0.420277,-0.140448,-0.038974,0.108064
"2018-06-06 23:18:27.627 +0000",1528327107.627203,1.099063,-0.849893,0.251293,0.587969,0.751210,-0.299952,0.000000,0.000000,0.000000,-1,-0.573917,-0.261572,-0.410505,-0.056353,-0.068669,0.122752
"2018-06-06 23:18:27.637 +0000",1528327107.637277,1.101085,-0.855657,0.256252,0.584704,0.755002,-0.296798,0.000000,0.000000,0.000000,-1,-0.543087,-0.147630,-0.336025,-0.031344,-0.153973,0.231536
"2018-06-06 23:18:27.647 +0000",1528327107.647351,1.102018,-0.858665,0.260349,0.582952,0.756971,-0.295224,0.000000,0.000000,0.000000,-1,-0.568666,-0.079281,-0.159362,0.082606,-0.203550,0.259519
"2018-06-06 23:18:27.657 +0000",1528327107.657425,1.108924,-0.861958,0.268785,0.582743,0.759118,-0.290079,0.000000,0.000000,0.000000,-1,-0.661294,0.108694,-0.019845,0.178686,-0.150506,0.305612
"2018-06-06 23:18:27.667 +0000",1528327107.667499,1.119118,-0.865128,0.279188,0.583501,0.761178,-0.283072,0.000000,0.000000,0.000000,-1,-0.774071,0.245459,0.014156,0.174220,-0.043680,0.344901
"2018-06-06 23:18:27.678 +0000",1528327107.677573,1.131444,-0.869244,0.292377,0.584105,0.763841,-0.274523,0.000000,0.000000,0.000000,-1,-1.021818,0.189925,0.003806,0.164613,0.019911,0.323946
"2018-06-06 23:18:27.688 +0000",1528327107.687647,1.143244,-0.872809,0.305457,0.584822,0.766137,-0.266481,0.000000,0.000000,0.000000,-1,-1.077143,0.354709,-0.061202,0.151445,-0.052896,0.260087
"2018-06-06 23:18:27.698 +0000",1528327107.697721,1.159940,-0.878070,0.321137,0.585486,0.769508,-0.255067,0.000000,0.000000,0.000000,-1,-1.137072,0.500589,-0.071397,0.120523,0.108422,0.264558
"2018-06-06 23:18:27.708 +0000",1528327107.707795,1.178051,-0.883464,0.336716,0.586166,0.772941,-0.242830,0.000000,0.000000,0.000000,-1,-1.102119,0.626056,-0.124895,0.131729,0.087685,0.205171
"2018-06-06 23:18:27.718 +0000",1528327107.717869,1.193838,-0.888714,0.350384,0.586145,0.776262,-0.232049,0.000000,0.000000,0.000000,-1,-0.940913,0.466422,-0.170905,0.083624,0.097640,-0.000327
"2018-06-06 23:18:27.728 +0000",1528327107.727944,1.203655,-0.892322,0.358971,0.585777,0.778531,-0.225277,0.000000,0.000000,0.000000,-1,-0.722053,0.400245,-0.213549,0.068321,0.168979,-0.103901
"2018-06-06 23:18:27.738 +0000",1528327107.738019,1.214044,-0.896522,0.367048,0.585017,0.781160,-0.218035,0.000000,0.000000,0.000000,-1,-0.587711,0.412646,-0.201989,0.063649,0.139586,-0.023099
"2018-06-06 23:18:27.748 +0000",1528327107.748092,1.223682,-0.899621,0.373985,0.584812,0.783091,-0.211562,0.000000,0.000000,0.000000,-1,-0.481241,0.418071,-0.116165,0.120282,0.060842,-0.007829
"2018-06-06 23:18:27.758 +0000",1528327107.758166,1.232851,-0.901478,0.379867,0.585354,0.784245,-0.205709,0.000000,0.000000,0.000000,-1,-0.377945,0.481687,-0.034467,0.145954,0.052425,-0.002512
"2018-06-06 23:18:27.768 +0000",1528327107.768240,1.240548,-0.901564,0.382871,0.586856,0.784298,-0.201176,0.000000,0.000000,0.000000,-1,-0.295406,0.653019,0.001338,0.088605,0.089954,0.072895
"2018-06-06 23:18:27.778 +0000",1528327107.778314,1.251072,-0.902325,0.386885,0.588374,0.784770,-0.194801,0.000000,0.000000,0.000000,-1,-0.241912,0.754175,-0.001717,0.037190,0.081044,0.103431
"2018-06-06 23:18:27.788 +0000",1528327107.788388,1.261123,-0.903280,0.389519,0.589589,0.785361,-0.188649,0.000000,0.000000,0.000000,-1,-0.158626,0.802902,-0.048019,-0.032246,0.090219,0.067784
"2018-06-06 23:18:27.798 +0000",1528327107.798462,1.268405,-0.903952,0.389748,0.590443,0.785777,-0.184194,0.000000,0.000000,0.000000,-1,0.011772,0.648643,-0.060690,-0.028126,0.033925,0.024297
"2018-06-06 23:18:27.809 +0000",1528327107.808537,1.269028,-0.903367,0.385770,0.590996,0.785416,-0.183962,0.000000,0.000000,0.000000,-1,0.159096,0.391095,-0.065003,-0.031822,0.016586,-0.066206
"2018-06-06 23:18:27.819 +0000",1528327107.818610,1.269135,-0.903203,0.382685,0.591139,0.785314,-0.183937,0.000000,0.000000,0.000000,-1,0.177900,0.198882,-0.027958,0.036516,0.055293,-0.016044
"2018-06-06 23:18:27.829 +0000",1528327107.828684,1.269123,-0.903596,0.380809,0.590842,0.785557,-0.183853,0.000000,0.000000,0.000000,-1,0.061930,0.173634,-0.105212,0.042642,0.089901,0.055404
"2018-06-06 23:18:27.839 +0000",1528327107.838758,1.271401,-0.905657,0.380446,0.589710,0.786831,-0.182028,0.000000,0.000000,0.000000,-1,-0.064270,0.249554,-0.230553,-0.089314,0.132053,0.201422
"2018-06-06 23:18:27.849 +0000",1528327107.848832,1.271131,-0.907916,0.379090,0.587962,0.788223,-0.181662,0.000000,0.000000,0.000000,-1,-0.094181,0.100397,-0.283625,-0.012446,0.051133,0.067542
"2018-06-06 23:18:27.859 +0000",1528327107.858906,1.271163,-0.909473,0.378750,0.586794,0.789180,-0.181281,0.000000,0.000000,0.000000,-1,0.026387,-0.017484,-0.103536,0.181303,-0.166820,-0.031991
"2018-06-06 23:18:27.869 +0000",1528327107.868980,1.270133,-0.908064,0.376277,0.587669,0.788314,-0.182215,0.000000,0.000000,0.000000,-1,0.219588,0.255361,0.144214,0.247201,-0.262389,-0.119040
"2018-06-06 23:18:27.879 +0000",1528327107.879055,1.279588,-0.904825,0.373971,0.591807,0.786317,-0.177382,0.000000,0.000000,0.000000,-1,0.214124,1.412832,0.302487,0.151402,-0.040040,0.460128
"2018-06-06 23:18:27.889 +0000",1528327107.889128,1.300256,-0.900137,0.374149,0.598893,0.783412,-0.166097,0.000000,0.000000,0.000000,-1,-0.097538,2.245713,0.435776,0.051497,0.002477,0.688985
"2018-06-06 23:18:27.899 +0000",1528327107.899203,1.333368,-0.897885,0.385581,0.605777,0.782010,-0.146593,0.000000,0.000000,0.000000,-1,-0.781877,2.360496,0.359155,-0.048419,0.024020,0.545885
"2018-06-06 23:18:27.909 +0000",1528327107.909277,1.360550,-0.897900,0.402925,0.609526,0.782020,-0.130073,0.000000,0.000000,0.000000,-1,-1.095352,0.857457,0.196305,-0.261488,0.060006,-0.243783
"2018-06-06 23:18:27.919 +0000",1528327107.919351,1.371191,-0.898685,0.422325,0.610273,0.782509,-0.123458,0.000000,0.000000,0.000000,-1,-1.224935,-0.760923,0.173608,-0.288618,-0.241081,-0.864839
"2018-06-06 23:18:27.929 +0000",1528327107.929425,1.378708,-0.897431,0.439477,0.612147,0.781727,-0.119054,0.000000,0.000000,0.000000,-1,-1.023937,-0.273638,0.336988,-0.073511,-0.256337,-0.035136
"2018-06-06 23:18:27.939 +0000",1528327107.939499,1.392663,-0.893294,0.451334,0.616925,0.779141,-0.111072,0.000000,0.000000,0.000000,-1,-0.562772,0.656256,0.623683,0.337222,-0.145672,0.514438
"2018-06-06 23:18:27.950 +0000",1528327107.949574,1.409262,-0.885472,0.461376,0.624681,0.774214,-0.101794,0.000000,0.000000,0.000000,-1,-0.477210,0.910952,0.939392,0.489760,-0.100919,0.183063
"2018-06-06 23:18:27.960 +0000",1528327107.959647,1.424139,-0.876280,0.470213,0.633139,0.768363,-0.093526,0.000000,0.000000,0.000000,-1,-0.379700,0.748576,0.981722,0.279230,0.023522,-0.073146
"2018-06-06 23:18:27.970 +0000",1528327107.969721,1.433858,-0.866715,0.475442,0.641270,0.762207,-0.088367,0.000000,0.000000,0.000000,-1,-0.260553,0.618455,0.938045,0.141934,0.142487,-0.063061
"2018-06-06 23:18:27.980 +0000",1528327107.979795,1.443084,-0.857464,0.480287,0.649024,0.756185,-0.083342,0.000000,0.000000,0.000000,-1,-0.165058,0.529709,0.960156,0.067223,0.055033,0.004988
"2018-06-06 23:18:27.990 +0000",1528327107.989869,1.449516,-0.848288,0.484127,0.656407,0.750150,-0.080002,0.000000,0.000000,0.000000,-1,-0.144509,0.293946,0.912095,-0.047245,0.059131,-0.052826
"2018-06-06 23:18:28.000 +0000",1528327107.999943,1.457222,-0.840303,0.490182,0.662935,0.744845,-0.075618,0.000000,0.000000,0.000000,-1,-0.371732,0.334335,0.815925,-0.264482,0.004728,-0.009099
"2018-06-06 23:18:28.010 +0000",1528327108.010017,1.465078,-0.831795,0.498149,0.669785,0.739142,-0.071073,0.000000,0.000000,0.000000,-1,-0.546689,0.244555,0.905343,-0.151551,-0.096213,0.097105
"2018-06-06 23:18:28.020 +0000",1528327108.020092,1.475058,-0.821723,0.507296,0.677837,0.732321,-0.065094,0.000000,0.000000,0.000000,-1,-0.495839,0.371194,1.106740,0.110264,-0.129034,0.112900
"2018-06-06 23:18:28.030 +0000",1528327108.030165,1.486985,-0.810250,0.516523,0.686893,0.724460,-0.057705,0.000000,0.000000,0.000000,-1,-0.544006,0.550696,1.202030,0.148159,-0.150744,0.127178
"2018-06-06 23:18:28.040 +0000",1528327108.040239,1.499246,-0.799811,0.527333,0.695055,0.717224,-0.049816,0.000000,0.000000,0.000000,-1,-0.705275,0.364366,1.025451,0.078810,-0.130768,0.047970
"2018-06-06 23:18:28.050 +0000",1528327108.050313,1.506461,-0.793372,0.537133,0.699991,0.712722,-0.045096,0.000000,0.000000,0.000000,-1,-0.708400,0.008605,0.518870,0.017767,-0.024444,-0.045053
"2018-06-06 23:18:28.060 +0000",1528327108.060387,1.510906,-0.793381,0.546867,0.700178,0.712729,-0.041984,0.000000,0.000000,0.000000,-1,-0.670659,-0.324555,-0.114665,0.002352,0.157144,-0.013527
"2018-06-06 23:18:28.070 +0000",1528327108.070461,1.511708,-0.798002,0.555079,0.696916,0.715962,-0.041228,0.000000,0.000000,0.000000,-1,-0.558331,-0.556501,-0.488845,0.070753,0.255183,0.054274
"2018-06-06 23:18:28.081 +0000",1528327108.080535,1.509181,-0.803556,0.559930,0.692830,0.719829,-0.042743,0.000000,0.000000,0.000000,-1,-0.300641,-0.597326,-0.530429,0.166377,0.293385,0.077273
"2018-06-06 23:18:28.091 +0000",1528327108.090611,1.502724,-0.808930,0.560084,0.688670,0.723549,-0.046952,0.000000,0.000000,0.000000,-1,-0.070384,-0.586674,-0.562119,0.152639,0.306922,0.022690
"2018-06-06 23:18:28.101 +0000",1528327108.100684,1.495835,-0.815073,0.560193,0.683885,0.727776,-0.051361,0.000000,0.000000,0.000000,-1,-0.061327,-0.724682,-0.630307,0.102858,0.236427,-0.017776
"2018-06-06 23:18:28.111 +0000",1528327108.110758,1.490215,-0.822116,0.562193,0.678460,0.732588,-0.054790,0.000000,0.000000,0.000000,-1,-0.243624,-0.675512,-0.696436,0.003990,0.035143,0.022304
"2018-06-06 23:18:28.121 +0000",1528327108.120832,1.488309,-0.829048,0.567037,0.673277,0.737289,-0.055663,0.000000,0.000000,0.000000,-1,-0.415457,-0.499500,-0.636370,-0.089994,-0.127685,0.100020
"2018-06-06 23:18:28.131 +0000",1528327108.130906,1.487204,-0.834627,0.571397,0.669105,0.741046,-0.056063,0.000000,0.000000,0.000000,-1,-0.384959,-0.324233,-0.526214,-0.066948,-0.143344,0.094881
"2018-06-06 23:18:28.141 +0000",1528327108.140980,1.483807,-0.837786,0.570863,0.666575,0.743164,-0.058132,0.000000,0.000000,0.000000,-1,0.277345,-0.349049,-0.190051,-0.010859,-0.071853,0.089382
"2018-06-06 23:18:28.151 +0000",1528327108.151054,1.475964,-0.837948,0.559868,0.665980,0.743272,-0.063346,0.000000,0.000000,0.000000,-1,0.832719,0.136152,-0.080195,0.034872,0.027587,0.224952
"2018-06-06 23:18:28.161 +0000",1528327108.161129,1.467761,-0.839456,0.544717,0.664322,0.744280,-0.068692,0.000000,0.000000,0.000000,-1,0.988849,0.364886,-0.333740,0.087448,0.008864,0.187009
"2018-06-06 23:18:28.171 +0000",1528327108.171202,1.463974,-0.844111,0.531602,0.660605,0.747381,-0.070837,0.000000,0.000000,0.000000,-1,0.658888,0.754940,-0.635181,0.082391,-0.057561,0.121054
"2018-06-06 23:18:28.181 +0000",1528327108.181276,1.463881,-0.850046,0.523548,0.656176,0.751311,-0.070424,0.000000,0.000000,0.000000,-1,0.386102,0.447910,-0.636525,0.058942,-0.101576,0.039998
"2018-06-06 23:18:28.191 +0000",1528327108.191350,1.460614,-0.855718,0.519462,0.651697,0.755042,-0.072097,0.000000,0.000000,0.000000,-1,0.175013,-0.138077,-0.567830,0.047217,-0.096869,-0.122651
"2018-06-06 23:18:28.201 +0000",1528327108.201424,1.455156,-0.861124,0.515271,0.647230,0.758575,-0.075181,0.000000,0.000000,0.000000,-1,0.209783,-0.215903,-0.572438,0.092715,-0.092270,0.025849
"2018-06-06 23:18:28.211 +0000",1528327108.211498,1.449399,-0.866414,0.510414,0.642793,0.762012,-0.078419,0.000000,0.000000,0.000000,-1,0.188962,-0.152156,-0.604475,0.175795,-0.049579,0.142841
"2018-06-06 23:18:28.222 +0000",1528327108.221572,1.444716,-0.872235,0.506543,0.638008,0.765768,-0.080869,0.000000,0.000000,0.000000,-1,0.148958,-0.169890,-0.590451,0.247917,-0.027853,0.130171
"2018-06-06 23:18:28.232 +0000",1528327108.231647,1.442194,-0.877185,0.505678,0.634035,0.768942,-0.081991,0.000000,0.000000,0.000000,-1,-0.036879,-0.203890,-0.458896,0.273604,-0.065268,0.226919
"2018-06-06 23:18:28.242 +0000",1528327108.241720,1.436812,-0.880450,0.503203,0.631093,0.771026,-0.085066,0.000000,0.000000,0.000000,-1,0.166935,-0.385096,-0.306072,0.272075,-0.110259,0.176421
"2018-06-06 23:18:28.252 +0000",1528327108.251794,1.445597,-0.870217,0.513165,0.639611,0.764469,-0.080500,0.000000,0.000000,0.000000,-1,0.133511,-0.654181,-0.297098,0.227394,-0.166431,0.104624
"2018-06-06 23:18:28.262 +0000",1528327108.261868,1.443646,-0.862433,0.517049,0.645336,0.759428,-0.082500,0.000000,0.000000,0.000000,-1,0.075882,-0.843704,-0.428746,0.157933,-0.099134,0.048671
"2018-06-06 23:18:28.272 +0000",1528327108.271942,1.426299,-0.858780,0.509937,0.646549,0.757046,-0.094080,0.000000,0.000000,0.000000,-1,0.052651,-0.930032,-0.538660,0.147229,-0.020184,0.042780
"2018-06-06 23:18:28.282 +0000",1528327108.282017,1.423091,-0.854376,0.514384,0.649535,0.754162,-0.096644,0.000000,0.000000,0.000000,-1,-0.078680,-0.936436,-0.669606,0.159868,-0.020809,0.002573
"2018-06-06 23:18:28.292 +0000",1528327108.292091,1.425540,-0.855369,0.523278,0.649028,0.754813,-0.094944,0.000000,0.000000,0.000000,-1,-0.213102,-0.869751,-0.954150,0.107380,0.039193,0.027470
"2018-06-06 23:18:28.302 +0000",1528327108.302166,1.423076,-0.867976,0.529234,0.639329,0.763022,-0.095135,0.000000,0.000000,0.000000,-1,-0.716267,-0.604236,-1.253406,0.060256,0.090768,0.119656
"2018-06-06 23:18:28.312 +0000",1528327108.312239,1.432899,-0.881441,0.543933,0.629998,0.771656,-0.087430,0.000000,0.000000,0.000000,-1,-1.192828,0.034881,-1.096638,-0.038156,0.100414,0.142179
"2018-06-06 23:18:28.322 +0000",1528327108.322313,1.443458,-0.887373,0.550835,0.626334,0.775416,-0.080190,0.000000,0.000000,0.000000,-1,-0.086026,0.637372,-0.317578,-0.054420,0.083593,0.004262
"2018-06-06 23:18:28.332 +0000",1528327108.332387,1.429771,-0.882560,0.529138,0.628866,0.772367,-0.089278,0.000000,0.000000,0.000000,-1,1.751999,0.144234,0.435108,-0.054312,-0.043989,-0.014176
"2018-06-06 23:18:28.342 +0000",1528327108.342461,1.405659,-0.873534,0.497380,0.633382,0.766603,-0.105556,0.000000,0.000000,0.000000,-1,2.169330,0.101077,0.531911,-0.048619,0.183348,-0.043705
"2018-06-06 23:18:28.353 +0000",1528327108.352535,1.384979,-0.867986,0.466954,0.635234,0.763029,-0.119415,0.000000,0.000000,0.000000,-1,1.936141,0.243826,0.105829,0.131185,0.271761,-0.048935
"2018-06-06 23:18:28.363 +0000",1528327108.362609,1.366151,-0.865284,0.442235,0.634889,0.761280,-0.131772,0.000000,0.000000,0.000000,-1,1.484123,-0.079401,-0.079087,0.193038,0.208203,-0.099139
"2018-06-06 23:18:28.373 +0000",1528327108.372684,1.348538,-0.864090,0.423563,0.633356,0.760505,-0.143133,0.000000,0.000000,0.000000,-1,1.067435,-0.409327,-0.213548,0.199087,0.252740,-0.093164
"2018-06-06 23:18:28.383 +0000",1528327108.382757,1.331494,-0.865214,0.410809,0.629994,0.761234,-0.153704,0.000000,0.000000,0.000000,-1,0.673783,-0.835882,-0.326830,0.134273,0.230420,-0.109357
"2018-06-06 23:18:28.393 +0000",1528327108.392831,1.315237,-0.868602,0.403972,0.624913,0.763427,-0.163272,0.000000,0.000000,0.000000,-1,0.226632,-1.162601,-0.461212,0.051921,0.157502,-0.030209
"2018-06-06 23:18:28.403 +0000",1528327108.402905,1.303908,-0.872596,0.404764,0.620077,0.766000,-0.169536,0.000000,0.000000,0.000000,-1,-0.277756,-1.165799,-0.294417,0.080927,-0.097040,0.104534
"2018-06-06 23:18:28.413 +0000",1528327108.412979,1.300251,-0.869960,0.412527,0.621396,0.764303,-0.172342,0.000000,0.000000,0.000000,-1,-0.467697,-0.815482,0.597671,0.226229,-0.455984,0.130365
"2018-06-06 23:18:28.423 +0000",1528327108.423053,1.304299,-0.861591,0.424646,0.628238,0.758880,-0.171503,0.000000,0.000000,0.000000,-1,-0.552502,-0.436738,1.062570,0.006955,-0.211196,0.129862
"2018-06-06 23:18:28.433 +0000",1528327108.433127,1.310805,-0.853721,0.437344,0.635092,0.753731,-0.168943,0.000000,0.000000,0.000000,-1,-0.600942,-0.268322,0.921185,-0.271842,0.309059,0.195234
"2018-06-06 23:18:28.443 +0000",1528327108.443202,1.316623,-0.846638,0.448494,0.641216,0.749057,-0.166583,0.000000,0.000000,0.000000,-1,-0.486051,-0.265585,0.868224,-0.284160,0.404019,0.151385
"2018-06-06 23:18:28.453 +0000",1528327108.453275,1.318919,-0.838079,0.455232,0.647782,0.743360,-0.166702,0.000000,0.000000,0.000000,-1,-0.158681,-0.229710,0.907377,-0.234498,0.182147,0.003494
"2018-06-06 23:18:28.463 +0000",1528327108.463349,1.319943,-0.829494,0.458252,0.654111,0.737590,-0.167616,0.000000,0.000000,0.000000,-1,0.052641,-0.097210,0.864253,-0.197614,0.015706,0.012267
"2018-06-06 23:18:28.473 +0000",1528327108.473424,1.320777,-0.821401,0.461217,0.660013,0.732101,-0.168543,0.000000,0.000000,0.000000,-1,-0.029887,-0.159801,0.813705,-0.147882,-0.116058,0.045953
"2018-06-06 23:18:28.483 +0000",1528327108.483498,1.321895,-0.814661,0.466853,0.664967,0.727493,-0.169016,0.000000,0.000000,0.000000,-1,-0.269343,-0.365272,0.699637,-0.107365,-0.157013,0.065623
"2018-06-06 23:18:28.494 +0000",1528327108.493572,1.321507,-0.810430,0.474440,0.667879,0.724583,-0.170032,0.000000,0.000000,0.000000,-1,-0.469864,-0.629332,0.446551,-0.096666,-0.073262,0.049900
"2018-06-06 23:18:28.504 +0000",1528327108.503646,1.319564,-0.808871,0.483480,0.668640,0.723509,-0.171610,0.000000,0.000000,0.000000,-1,-0.584795,-0.925300,0.267396,-0.064209,-0.056486,0.031336
"2018-06-06 23:18:28.514 +0000",1528327108.513721,1.315246,-0.808001,0.491900,0.668502,0.722907,-0.174655,0.000000,0.000000,0.000000,-1,-0.500388,-1.043478,0.232439,-0.022003,-0.081260,-0.024915
"2018-06-06 23:18:28.524 +0000",1528327108.523794,1.309565,-0.806357,0.498878,0.668646,0.721771,-0.178756,0.000000,0.000000,0.000000,-1,-0.404196,-1.074203,0.293441,-0.021033,-0.166549,-0.042817
"2018-06-06 23:18:28.534 +0000",1528327108.533868,1.302430,-0.804091,0.504776,0.668929,0.720200,-0.183956,0.000000,0.000000,0.000000,-1,-0.343189,-1.121215,0.287786,-0.058563,-0.185959,0.017681
"2018-06-06 23:18:28.544 +0000",1528327108.543942,1.293871,-0.802960,0.510240,0.668113,0.719415,-0.189897,0.000000,0.000000,0.000000,-1,-0.334738,-1.283146,0.164672,-0.099006,-0.093851,0.062913
"2018-06-06 23:18:28.554 +0000",1528327108.554016,1.282939,-0.804556,0.514456,0.664896,0.720523,-0.196863,0.000000,0.000000,0.000000,-1,-0.317449,-1.425570,-0.154173,-0.091379,0.092740,0.113046
"2018-06-06 23:18:28.564 +0000",1528327108.564090,1.268589,-0.808460,0.517757,0.659312,0.723224,-0.205545,0.000000,0.000000,0.000000,-1,-0.342008,-1.756410,-0.334711,-0.017131,0.058346,0.125390
"2018-06-06 23:18:28.574 +0000",1528327108.574164,1.251564,-0.812684,0.521549,0.652811,0.726135,-0.215779,0.000000,0.000000,0.000000,-1,-0.422464,-2.003530,-0.358910,0.001028,0.012589,0.135533
"2018-06-06 23:18:28.584 +0000",1528327108.584239,1.233374,-0.817872,0.526461,0.645215,0.729692,-0.226367,0.000000,0.000000,0.000000,-1,-0.502958,-2.211132,-0.382994,-0.068112,0.115416,0.123080
"2018-06-06 23:18:28.594 +0000",1528327108.594312,1.214101,-0.824116,0.532444,0.636450,0.733948,-0.237164,0.000000,0.000000,0.000000,-1,-0.631234,-2.390019,-0.480029,-0.138266,0.067337,0.125179
"2018-06-06 23:18:28.604 +0000",1528327108.604386,1.193642,-0.833244,0.539869,0.625211,0.740117,-0.247657,0.000000,0.000000,0.000000,-1,-0.844388,-2.640949,-0.730894,-0.259885,0.110805,0.142951
"2018-06-06 23:18:28.614 +0000",1528327108.614460,1.171775,-0.844932,0.548580,0.611633,0.747926,-0.257889,0.000000,0.000000,0.000000,-1,-1.042303,-2.853678,-0.919297,-0.270401,0.110289,0.118882
"2018-06-06 23:18:28.625 +0000",1528327108.624534,1.149247,-0.859208,0.558164,0.595865,0.757326,-0.267205,0.000000,0.000000,0.000000,-1,-1.165881,-2.974068,-1.088241,-0.291254,0.066100,0.092767
"2018-06-06 23:18:28.635 +0000",1528327108.634608,1.126809,-0.875322,0.567512,0.578623,0.767750,-0.275228,0.000000,0.000000,0.000000,-1,-1.209057,-2.919858,-1.217062,-0.313731,0.064113,0.087911
"2018-06-06 23:18:28.645 +0000",1528327108.644682,1.104261,-0.891265,0.574706,0.561266,0.777867,-0.282662,0.000000,0.000000,0.000000,-1,-1.062200,-2.730639,-1.215772,-0.292666,0.055644,0.061608
"2018-06-06 23:18:28.655 +0000",1528327108.654757,1.082664,-0.905558,0.578736,0.545155,0.786770,-0.289473,0.000000,0.000000,0.000000,-1,-0.838464,-2.339573,-1.129095,-0.248830,-0.032833,0.064391
"2018-06-06 23:18:28.665 +0000",1528327108.664830,1.062955,-0.918212,0.579987,0.530603,0.794517,-0.295295,0.000000,0.000000,0.000000,-1,-0.612511,-1.975896,-1.054335,-0.191430,-0.010261,0.065696
"2018-06-06 23:18:28.675 +0000",1528327108.674904,1.043067,-0.929737,0.578252,0.516679,0.801463,-0.301158,0.000000,0.000000,0.000000,-1,-0.438366,-1.806382,-1.047787,-0.176607,0.056218,0.048380
"2018-06-06 23:18:28.685 +0000",1528327108.684978,1.022131,-0.940626,0.574381,0.502785,0.807927,-0.307338,0.000000,0.000000,0.000000,-1,-0.333475,-1.777611,-1.032884,-0.137551,0.045009,0.058238
"2018-06-06 23:18:28.695 +0000",1528327108.695053,0.999109,-0.950121,0.568979,0.489104,0.813486,-0.314666,0.000000,0.000000,0.000000,-1,-0.230119,-1.869926,-0.939809,-0.093459,0.033865,0.041518
"2018-06-06 23:18:28.705 +0000",1528327108.705127,0.974428,-0.958210,0.563447,0.475729,0.818164,-0.322933,0.000000,0.000000,0.000000,-1,-0.165738,-2.042590,-0.822137,-0.133779,-0.069400,0.018063
"2018-06-06 23:18:28.715 +0000",1528327108.715201,0.948879,-0.965173,0.557887,0.462683,0.822147,-0.331654,0.000000,0.000000,0.000000,-1,-0.124411,-2.083488,-0.727694,-0.126791,-0.123295,0.023412
"2018-06-06 23:18:28.725 +0000",1528327108.725275,0.923313,-0.970722,0.552018,0.450408,0.825294,-0.340616,0.000000,0.000000,0.000000,-1,-0.036061,-2.044209,-0.611613,-0.084990,-0.135856,0.043696
"2018-06-06 23:18:28.735 +0000",1528327108.735349,0.897811,-0.974401,0.545796,0.439199,0.827365,-0.350096,0.000000,0.000000,0.000000,-1,0.042675,-2.009438,-0.474009,-0.056996,-0.240879,0.051665
"2018-06-06 23:18:28.745 +0000",1528327108.745423,0.874882,-0.976428,0.542368,0.429768,0.828503,-0.358998,0.000000,0.000000,0.000000,-1,0.005121,-1.932566,-0.243512,0.023815,-0.404858,0.071842
"2018-06-06 23:18:28.755 +0000",1528327108.755497,0.852585,-0.980500,0.538065,0.419114,0.830776,-0.366267,0.000000,0.000000,0.000000,-1,-0.122898,-1.893267,-0.537831,-0.170640,-0.042751,0.124538
"2018-06-06 23:18:28.766 +0000",1528327108.765571,0.826771,-0.985781,0.534305,0.406286,0.833704,-0.373986,0.000000,0.000000,0.000000,-1,-0.203717,-2.396500,-0.483176,-0.149725,-0.253961,0.053674
"2018-06-06 23:18:28.776 +0000",1528327108.775645,0.795760,-0.987948,0.529961,0.393204,0.834898,-0.385139,0.000000,0.000000,0.000000,-1,0.091526,-2.746568,-0.315994,-0.005906,-0.789091,-0.151116
"2018-06-06 23:18:28.786 +0000",1528327108.785719,0.760673,-0.992558,0.517718,0.376794,0.837427,-0.395903,0.000000,0.000000,0.000000,-1,0.145154,-2.321758,-1.060303,-0.272989,-0.046549,0.146071
"2018-06-06 23:18:28.796 +0000",1528327108.795793,0.721345,-1.004066,0.494132,0.354549,0.843661,-0.403148,0.000000,0.000000,0.000000,-1,-0.067376,-1.866593,-1.889966,0.108434,0.816358,0.397182
"2018-06-06 23:18:28.806 +0000",1528327108.805867,0.677186,-1.020472,0.469351,0.327688,0.852355,-0.407564,0.000000,0.000000,0.000000,-1,-0.511929,-2.424782,-2.060524,0.185480,0.117296,0.116701
"2018-06-06 23:18:28.816 +0000",1528327108.815941,0.620613,-1.039193,0.438787,0.294787,0.861996,-0.412385,0.000000,0.000000,0.000000,-1,-0.513233,-3.190371,-2.480098,-0.070895,0.452183,-0.067611
"2018-06-06 23:18:28.826 +0000",1528327108.826015,0.543919,-1.059433,0.387551,0.253242,0.872078,-0.418742,0.000000,0.000000,0.000000,-1,-0.207175,-3.038107,-3.509748,-0.263771,0.958915,-0.187978
"2018-06-06 23:18:28.836 +0000",1528327108.836089,0.458168,-1.081274,0.314879,0.207973,0.882557,-0.421707,0.000000,0.000000,0.000000,-1,-0.309770,-1.962313,-4.096913,-0.185420,1.059215,0.048675
"2018-06-06 23:18:28.846 +0000",1528327108.846163,0.381607,-1.099816,0.240157,0.168985,0.891124,-0.421116,0.000000,0.000000,0.000000,-1,-0.194791,-0.726188,-3.766584,0.116797,0.405263,0.042149
"2018-06-06 23:18:28.856 +0000",1528327108.856237,0.309185,-1.109600,0.166776,0.135411,0.895521,-0.423914,0.000000,0.000000,0.000000,-1,0.297232,-0.800447,-3.270979,0.188411,0.046908,-0.206228
"2018-06-06 23:18:28.866 +0000",1528327108.866311,0.245085,-1.109820,0.106189,0.107930,0.895619,-0.431526,0.000000,0.000000,0.000000,-1,0.853199,-0.986150,-2.334830,0.133433,0.145763,-0.235832
"2018-06-06 23:18:28.876 +0000",1528327108.876385,0.202989,-1.100804,0.064829,0.091299,0.891572,-0.443577,0.000000,0.000000,0.000000,-1,1.416309,-0.308127,-1.341327,0.280894,0.045333,0.014409
"2018-06-06 23:18:28.886 +0000",1528327108.886459,0.181107,-1.088090,0.046306,0.083606,0.885742,-0.456583,0.000000,0.000000,0.000000,-1,1.344114,-0.629607,-0.380470,0.468502,-0.122497,0.125040
"2018-06-06 23:18:28.897 +0000",1528327108.896533,0.171280,-1.077749,0.043433,0.080672,0.880895,-0.466383,0.000000,0.000000,0.000000,-1,0.911416,-0.733030,0.174177,0.062074,-0.093801,0.128676
"2018-06-06 23:18:28.907 +0000",1528327108.906608,0.168295,-1.070285,0.049573,0.080379,0.877337,-0.473091,0.000000,0.000000,0.000000,-1,0.630886,-0.871200,0.476674,-0.310436,-0.014666,0.039833
"2018-06-06 23:18:28.917 +0000",1528327108.916682,0.169103,-1.063473,0.060166,0.081765,0.874048,-0.478907,0.000000,0.000000,0.000000,-1,0.582202,-0.797422,0.652330,-0.474740,0.087591,-0.139624
"2018-06-06 23:18:28.927 +0000",1528327108.926756,0.174015,-1.055426,0.073167,0.085332,0.870110,-0.485411,0.000000,0.000000,0.000000,-1,0.715381,-0.598942,0.792436,-0.445271,0.158836,-0.152940
"2018-06-06 23:18:28.937 +0000",1528327108.936830,0.182170,-1.045366,0.088395,0.090869,0.865108,-0.493283,0.000000,0.000000,0.000000,-1,0.897497,-0.443395,0.993617,-0.279880,0.174046,-0.106921
"2018-06-06 23:18:28.947 +0000",1528327108.946904,0.195201,-1.032487,0.106973,0.099442,0.858577,-0.502946,0.000000,0.000000,0.000000,-1,1.147706,-0.238331,1.211997,-0.093491,0.232854,-0.059356
"2018-06-06 23:18:28.957 +0000",1528327108.956978,0.211988,-1.016543,0.127967,0.110737,0.850293,-0.514525,0.000000,0.000000,0.000000,-1,1.387423,-0.104682,1.437722,0.049831,0.256854,-0.008028
"2018-06-06 23:18:28.967 +0000",1528327108.967052,0.229390,-0.997850,0.150552,0.123266,0.840307,-0.527907,0.000000,0.000000,0.000000,-1,1.603586,-0.184945,1.611248,0.156397,0.280115,0.052840
"2018-06-06 23:18:28.977 +0000",1528327108.977126,0.245257,-0.976699,0.172474,0.135912,0.828654,-0.543008,0.000000,0.000000,0.000000,-1,1.812913,-0.236388,1.713881,0.162901,0.370442,0.091851
"2018-06-06 23:18:28.987 +0000",1528327108.987200,0.259998,-0.953230,0.194052,0.148861,0.815290,-0.559589,0.000000,0.000000,0.000000,-1,1.997345,-0.328369,1.780957,0.147190,0.428988,0.078205
"2018-06-06 23:18:28.997 +0000",1528327108.997274,0.272315,-0.928777,0.215531,0.161057,0.800888,-0.576746,0.000000,0.000000,0.000000,-1,1.995845,-0.563663,1.868479,0.141051,0.433807,0.068049
"2018-06-06 23:18:29.007 +0000",1528327109.007348,0.282524,-0.905444,0.237743,0.172101,0.786699,-0.592860,0.000000,0.000000,0.000000,-1,1.805354,-0.787363,1.945711,0.097018,0.354139,0.133830
"2018-06-06 23:18:29.017 +0000",1528327109.017422,0.290251,-0.884528,0.260786,0.181347,0.773616,-0.607149,0.000000,0.000000,0.000000,-1,1.535235,-1.072684,2.004660,0.008854,0.220326,0.169939
"2018-06-06 23:18:29.027 +0000",1528327109.027496,0.295263,-0.865189,0.284581,0.188706,0.761218,-0.620432,0.000000,0.000000,0.000000,-1,1.369619,-1.396971,2.000869,-0.046449,0.116971,0.169000
"2018-06-06 23:18:29.038 +0000",1528327109.037570,0.296056,-0.846467,0.307275,0.193323,0.748944,-0.633804,0.000000,0.000000,0.000000,-1,1.349315,-1.687703,1.945211,-0.044214,0.065296,0.172760
"2018-06-06 23:18:29.048 +0000",1528327109.047644,0.291618,-0.827458,0.327367,0.194567,0.736213,-0.648176,0.000000,0.000000,0.000000,-1,1.447552,-1.962237,1.769933,-0.029116,-0.043739,0.201979
"2018-06-06 23:18:29.058 +0000",1528327109.057718,0.283114,-0.809119,0.342705,0.192787,0.723680,-0.662661,0.000000,0.000000,0.000000,-1,1.468884,-1.924609,1.449452,-0.053154,-0.135896,0.230791
"2018-06-06 23:18:29.068 +0000",1528327109.067792,0.265961,-0.793786,0.344903,0.184288,0.713013,-0.676497,0.000000,0.000000,0.000000,-1,1.411884,-1.790733,0.375402,0.010597,-0.144074,0.206542
"2018-06-06 23:18:29.078 +0000",1528327109.077866,0.248814,-0.780196,0.344769,0.175031,0.703419,-0.688886,0.000000,0.000000,0.000000,-1,1.268090,-1.694423,0.350196,0.154329,-0.304859,0.173002
"2018-06-06 23:18:29.088 +0000",1528327109.087940,0.231025,-0.767812,0.345731,0.164732,0.694563,-0.700317,0.000000,0.000000,0.000000,-1,1.163250,-1.879130,0.347748,-0.018263,-0.069425,0.068832
"2018-06-06 23:18:29.098 +0000",1528327109.098014,0.211122,-0.756151,0.346062,0.152449,0.686126,-0.711329,0.000000,0.000000,0.000000,-1,1.145994,-2.002963,0.285040,-0.138594,0.038987,0.065409
"2018-06-06 23:18:29.108 +0000",1528327109.108088,0.190899,-0.744515,0.345837,0.139539,0.677615,-0.722056,0.000000,0.000000,0.000000,-1,1.127780,-1.976276,0.191578,-0.160169,0.004850,0.140162
"2018-06-06 23:18:29.118 +0000",1528327109.118162,0.171330,-0.733824,0.344679,0.126611,0.669715,-0.731745,0.000000,0.000000,0.000000,-1,1.026630,-1.813603,0.076113,-0.173150,-0.047415,0.211298
"2018-06-06 23:18:29.128 +0000",1528327109.128236,0.153672,-0.724981,0.342603,0.114573,0.663121,-0.739691,0.000000,0.000000,0.000000,-1,0.844436,-1.546906,-0.030258,-0.176829,-0.107427,0.262106
"2018-06-06 23:18:29.138 +0000",1528327109.138310,0.137904,-0.718419,0.339756,0.103492,0.658195,-0.745700,0.000000,0.000000,0.000000,-1,0.666278,-1.289074,-0.114076,-0.169303,-0.152458,0.266558
"2018-06-06 23:18:29.148 +0000",1528327109.148384,0.125137,-0.713005,0.336848,0.094406,0.654109,-0.750485,0.000000,0.000000,0.000000,-1,0.526620,-1.006071,-0.153808,-0.171021,-0.173473,0.278072
"2018-06-06 23:18:29.158 +0000",1528327109.158459,0.115035,-0.708975,0.333588,0.087122,0.651056,-0.754013,0.000000,0.000000,0.000000,-1,0.392320,-0.729585,-0.206478,-0.172740,-0.200006,0.301711
"2018-06-06 23:18:29.169 +0000",1528327109.168533,0.106707,-0.706484,0.330104,0.081012,0.649163,-0.756322,0.000000,0.000000,0.000000,-1,0.233866,-0.568490,-0.245446,-0.198169,-0.233804,0.281636
"2018-06-06 23:18:29.179 +0000",1528327109.178607,0.098852,-0.705808,0.325889,0.075113,0.648649,-0.757372,0.000000,0.000000,0.000000,-1,0.109236,-0.465396,-0.305096,-0.219613,-0.257017,0.212724
"2018-06-06 23:18:29.189 +0000",1528327109.188681,0.091870,-0.705719,0.321389,0.069828,0.648581,-0.757935,0.000000,0.000000,0.000000,-1,0.013857,-0.376586,-0.342267,-0.185657,-0.220175,0.123414
"2018-06-06 23:18:29.199 +0000",1528327109.198755,0.085938,-0.706829,0.316974,0.065269,0.649426,-0.757618,0.000000,0.000000,0.000000,-1,-0.116508,-0.277067,-0.338452,-0.116417,-0.172177,0.072468
"2018-06-06 23:18:29.209 +0000",1528327109.208829,0.081672,-0.709368,0.313080,0.061901,0.651354,-0.756244,0.000000,0.000000,0.000000,-1,-0.263964,-0.130523,-0.303268,-0.055310,-0.133135,0.065143
"2018-06-06 23:18:29.219 +0000",1528327109.218903,0.079287,-0.713768,0.309819,0.059870,0.654687,-0.753525,0.000000,0.000000,0.000000,-1,-0.423153,0.030169,-0.246502,-0.005717,-0.124093,0.069458
"2018-06-06 23:18:29.229 +0000",1528327109.228977,0.079361,-0.719397,0.307794,0.059633,0.658931,-0.749835,0.000000,0.000000,0.000000,-1,-0.584534,0.174330,-0.175796,0.020659,-0.137813,0.064426
"2018-06-06 23:18:29.239 +0000",1528327109.239051,0.081584,-0.726522,0.307154,0.060916,0.664274,-0.745002,0.000000,0.000000,0.000000,-1,-0.737657,0.288781,-0.082607,0.051725,-0.155271,0.054390
"2018-06-06 23:18:29.249 +0000",1528327109.249125,0.085411,-0.734880,0.307583,0.063291,0.670498,-0.739206,0.000000,0.000000,0.000000,-1,-0.857916,0.372734,-0.025078,0.043567,-0.141903,0.006311
"2018-06-06 23:18:29.259 +0000",1528327109.259199,0.090069,-0.744432,0.308503,0.066154,0.677554,-0.732491,0.000000,0.000000,0.000000,-1,-0.941192,0.423961,0.007531,0.011178,-0.141879,-0.077964
"2018-06-06 23:18:29.269 +0000",1528327109.269273,0.095709,-0.754385,0.310077,0.069636,0.684841,-0.725357,0.000000,0.000000,0.000000,-1,-1.012799,0.467595,0.026108,0.028066,-0.168560,-0.156387
"2018-06-06 23:18:29.279 +0000",1528327109.279347,0.102392,-0.765323,0.311796,0.073712,0.692770,-0.717381,0.000000,0.000000,0.000000,-1,-1.127252,0.584817,0.007349,0.035068,-0.221350,-0.133220
"2018-06-06 23:18:29.289 +0000",1528327109.289421,0.109865,-0.777300,0.312453,0.078155,0.701357,-0.708512,0.000000,0.000000,0.000000,-1,-1.183141,0.724603,-0.117967,-0.052856,-0.283450,-0.018158
"2018-06-06 23:18:29.299 +0000",1528327109.299495,0.114125,-0.787389,0.309818,0.080363,0.708513,-0.701107,0.000000,0.000000,0.000000,-1,-0.832518,0.539904,-0.344117,-0.238505,-0.244737,-0.154118
"2018-06-06 23:18:29.310 +0000",1528327109.309569,0.111416,-0.791787,0.304162,0.078116,0.711610,-0.698218,0.000000,0.000000,0.000000,-1,-0.288266,-0.001590,-0.437292,-0.281150,0.107681,-0.611703
"2018-06-06 23:18:29.320 +0000",1528327109.319643,0.106286,-0.797195,0.301537,0.074124,0.715399,-0.694773,0.000000,0.000000,0.000000,-1,-0.627096,-0.428502,-0.166696,0.105869,0.747629,-0.790731
"2018-06-06 23:18:29.330 +0000",1528327109.329717,0.105696,-0.807277,0.302736,0.072949,0.722407,-0.687608,0.000000,0.000000,0.000000,-1,-1.165634,0.079737,0.007043,0.199939,0.908712,-0.325667
"2018-06-06 23:18:29.340 +0000",1528327109.339791,0.112073,-0.823884,0.304700,0.075980,0.733790,-0.675113,0.000000,0.000000,0.000000,-1,-1.745488,0.558060,-0.042944,0.040749,0.656637,0.411747
"2018-06-06 23:18:29.350 +0000",1528327109.349865,0.120688,-0.840752,0.307085,0.080292,0.745145,-0.662051,0.000000,0.000000,0.000000,-1,-1.601865,0.739537,-0.029837,-0.051773,0.252536,0.170687
"2018-06-06 23:18:29.360 +0000",1528327109.359939,0.131893,-0.854985,0.309150,0.086301,0.754561,-0.650530,0.000000,0.000000,0.000000,-1,-1.399280,1.038778,-0.049868,-0.014463,0.079240,0.339678
"2018-06-06 23:18:29.370 +0000",1528327109.370013,0.145387,-0.869796,0.311430,0.093442,0.764198,-0.638177,0.000000,0.000000,0.000000,-1,-1.505459,1.185608,-0.055651,-0.133786,-0.090782,0.657830
"2018-06-06 23:18:29.380 +0000",1528327109.380087,0.160046,-0.884900,0.314323,0.100936,0.773852,-0.625271,0.000000,0.000000,0.000000,-1,-1.456602,1.294202,-0.002741,-0.222808,-0.295580,0.351910
"2018-06-06 23:18:29.390 +0000",1528327109.390161,0.181137,-0.899181,0.319599,0.112097,0.782817,-0.612070,0.000000,0.000000,0.000000,-1,-1.482218,1.860078,0.117285,-0.040152,-0.291347,0.234156
"2018-06-06 23:18:29.400 +0000",1528327109.400236,0.211615,-0.915016,0.328183,0.128077,0.792573,-0.596174,0.000000,0.000000,0.000000,-1,-1.699042,2.496789,0.234728,0.181860,-0.183930,0.512663
"2018-06-06 23:18:29.410 +0000",1528327109.410310,0.247714,-0.931654,0.339074,0.146256,0.802608,-0.578298,0.000000,0.000000,0.000000,-1,-1.751997,2.760004,0.259279,0.172805,-0.053905,0.528737
"2018-06-06 23:18:29.420 +0000",1528327109.420384,0.283419,-0.947642,0.349773,0.163198,0.812042,-0.560316,0.000000,0.000000,0.000000,-1,-1.617911,2.643233,0.183337,0.055583,0.153626,0.307050
"2018-06-06 23:18:29.430 +0000",1528327109.430458,0.314269,-0.961804,0.358561,0.176830,0.820225,-0.544023,0.000000,0.000000,0.000000,-1,-1.454577,2.241460,0.026901,-0.030635,0.407238,0.103532
"2018-06-06 23:18:29.441 +0000",1528327109.440532,0.340134,-0.975536,0.366131,0.187065,0.828003,-0.528599,0.000000,0.000000,0.000000,-1,-1.428510,1.867468,-0.038785,-0.002708,0.570160,0.053623
"2018-06-06 23:18:29.451 +0000",1528327109.450606,0.365536,-0.988799,0.375897,0.196487,0.835367,-0.513375,0.000000,0.000000,0.000000,-1,-1.410441,1.674852,0.093993,0.151993,0.560111,0.159737
"2018-06-06 23:18:29.461 +0000",1528327109.460680,0.392493,-1.000677,0.389149,0.206443,0.841837,-0.498689,0.000000,0.000000,0.000000,-1,-1.281767,1.539259,0.314887,0.290673,0.422095,0.134904
"2018-06-06 23:18:29.471 +0000",1528327109.470754,0.421514,-1.010283,0.406185,0.217508,0.846983,-0.485086,0.000000,0.000000,0.000000,-1,-1.228404,1.436577,0.490872,0.363150,0.286852,0.134363
"2018-06-06 23:18:29.481 +0000",1528327109.480828,0.452151,-1.019269,0.425537,0.228931,0.851725,-0.471331,0.000000,0.000000,0.000000,-1,-1.240388,1.403359,0.551039,0.325574,0.165868,0.161654
"2018-06-06 23:18:29.491 +0000",1528327109.490902,0.483304,-1.027774,0.445650,0.240125,0.856151,-0.457541,0.000000,0.000000,0.000000,-1,-1.217181,1.378216,0.541232,0.233538,0.069081,0.099401
"2018-06-06 23:18:29.501 +0000",1528327109.500976,0.514233,-1.036564,0.465908,0.250448,0.860660,-0.443326,0.000000,0.000000,0.000000,-1,-1.211566,1.326808,0.500195,0.137262,0.018933,0.082105
"2018-06-06 23:18:29.511 +0000",1528327109.511050,0.544046,-1.044425,0.485277,0.260042,0.864636,-0.429862,0.000000,0.000000,0.000000,-1,-1.138468,1.305385,0.421443,0.057066,-0.019970,0.069342
"2018-06-06 23:18:29.521 +0000",1528327109.521124,0.572373,-1.051525,0.502614,0.268781,0.868181,-0.417153,0.000000,0.000000,0.000000,-1,-1.027563,1.315917,0.339471,-0.008450,-0.058824,0.033120
"2018-06-06 23:18:29.531 +0000",1528327109.531198,0.599579,-1.058148,0.519840,0.276778,0.871449,-0.404931,0.000000,0.000000,0.000000,-1,-1.025362,1.161112,0.345469,0.015138,-0.084644,0.056222
"2018-06-06 23:18:29.541 +0000",1528327109.541272,0.626500,-1.065669,0.540178,0.283727,0.875113,-0.392013,0.000000,0.000000,0.000000,-1,-1.167324,0.828927,0.408291,0.067027,-0.088583,0.099700
"2018-06-06 23:18:29.551 +0000",1528327109.551346,0.653739,-1.073349,0.563245,0.290202,0.878804,-0.378794,0.000000,0.000000,0.000000,-1,-1.301801,0.648407,0.434965,0.035802,-0.073918,0.108499
"2018-06-06 23:18:29.561 +0000",1528327109.561420,0.681676,-1.081492,0.588977,0.296151,0.882660,-0.364970,0.000000,0.000000,0.000000,-1,-1.405764,0.489968,0.451952,0.047340,-0.073670,0.105418
"2018-06-06 23:18:29.571 +0000",1528327109.571494,0.710135,-1.089535,0.616383,0.301778,0.886412,-0.351001,0.000000,0.000000,0.000000,-1,-1.425725,0.399847,0.463568,0.051768,-0.067366,0.073306
"2018-06-06 23:18:29.582 +0000",1528327109.581568,0.739803,-1.097384,0.645207,0.307357,0.890018,-0.336745,0.000000,0.000000,0.000000,-1,-1.401811,0.396485,0.495773,0.058915,-0.074359,0.053756
"2018-06-06 23:18:29.592 +0000",1528327109.591642,0.770250,-1.103630,0.674837,0.313588,0.892848,-0.323236,0.000000,0.000000,0.000000,-1,-1.348763,0.405136,0.562367,0.098170,-0.099376,0.058237
"2018-06-06 23:18:29.602 +0000",1528327109.601716,0.801769,-1.108520,0.705270,0.320478,0.895039,-0.310153,0.000000,0.000000,0.000000,-1,-1.282089,0.442366,0.629012,0.129076,-0.117131,0.054996
"2018-06-06 23:18:29.612 +0000",1528327109.611790,0.834389,-1.112176,0.735378,0.327996,0.896664,-0.297336,0.000000,0.000000,0.000000,-1,-1.197261,0.616006,0.640082,0.133612,-0.121411,0.071964
"2018-06-06 23:18:29.622 +0000",1528327109.621864,0.866971,-1.115476,0.764220,0.335251,0.898120,-0.284577,0.000000,0.000000,0.000000,-1,-1.101238,0.638481,0.579691,0.090515,-0.112293,0.063096
"2018-06-06 23:18:29.632 +0000",1528327109.631938,0.896808,-1.118301,0.790017,0.341607,0.899359,-0.272864,0.000000,0.000000,0.000000,-1,-1.027957,0.684158,0.468865,0.077033,-0.094778,0.068229
"2018-06-06 23:18:29.642 +0000",1528327109.642012,0.925857,-1.121416,0.813622,0.347148,0.900717,-0.261142,0.000000,0.000000,0.000000,-1,-0.990404,0.805511,0.350811,0.007894,-0.090460,0.106433
"2018-06-06 23:18:29.652 +0000",1528327109.652086,0.953665,-1.125085,0.835161,0.351577,0.902304,-0.249475,0.000000,0.000000,0.000000,-1,-0.948426,0.824853,0.216315,-0.078582,-0.068259,0.089166
"2018-06-06 23:18:29.662 +0000",1528327109.662160,0.978763,-1.129446,0.854551,0.354458,0.904176,-0.238375,0.000000,0.000000,0.000000,-1,-0.858141,0.708131,0.099599,-0.154400,-0.011811,0.004839
"2018-06-06 23:18:29.672 +0000",1528327109.672234,0.999968,-1.133294,0.870712,0.356503,0.905813,-0.228924,0.000000,0.000000,0.000000,-1,-0.753697,0.643871,0.047542,-0.175854,0.020152,-0.013446
"2018-06-06 23:18:29.682 +0000",1528327109.682309,1.020280,-1.136310,0.885616,0.358749,0.907086,-0.220206,0.000000,0.000000,0.000000,-1,-0.672195,0.691095,0.096973,-0.136352,0.009402,0.006415
"2018-06-06 23:18:29.692 +0000",1528327109.692383,1.041545,-1.138580,0.901274,0.361572,0.908040,-0.211487,0.000000,0.000000,0.000000,-1,-0.683165,0.695203,0.157246,-0.075835,-0.016774,0.022919
"2018-06-06 23:18:29.702 +0000",1528327109.702457,1.064022,-1.140846,0.918285,0.364434,0.908987,-0.202308,0.000000,0.000000,0.000000,-1,-0.673759,0.693007,0.163672,-0.034264,-0.025930,-0.003746
"2018-06-06 23:18:29.713 +0000",1528327109.712531,1.085254,-1.142540,0.933474,0.367284,0.909691,-0.193807,0.000000,0.000000,0.000000,-1,-0.619080,0.749208,0.148651,0.018656,-0.038369,0.008001
"2018-06-06 23:18:29.723 +0000",1528327109.722605,1.105347,-1.144133,0.947421,0.369809,0.910352,-0.185738,0.000000,0.000000,0.000000,-1,-0.569372,0.720976,0.107580,0.103809,-0.030515,0.034417
"2018-06-06 23:18:29.733 +0000",1528327109.732679,1.122053,-1.146046,0.958720,0.371290,0.911142,-0.178778,0.000000,0.000000,0.000000,-1,-0.477117,0.611876,0.007017,0.129946,0.003119,0.008994
"2018-06-06 23:18:29.743 +0000",1528327109.742753,1.136682,-1.148488,0.968428,0.371846,0.912145,-0.172391,0.000000,0.000000,0.000000,-1,-0.406206,0.534386,-0.053607,0.138728,0.011683,-0.011263
"2018-06-06 23:18:29.753 +0000",1528327109.752827,1.147723,-1.151215,0.975404,0.371457,0.913260,-0.167253,0.000000,0.000000,0.000000,-1,-0.360228,0.445992,-0.148626,0.151859,-0.004492,-0.035826
"2018-06-06 23:18:29.763 +0000",1528327109.762901,1.158070,-1.154206,0.981196,0.370664,0.914474,-0.162305,0.000000,0.000000,0.000000,-1,-0.327475,0.537350,-0.185007,0.178057,-0.038329,-0.029971
"2018-06-06 23:18:29.773 +0000",1528327109.772975,1.169310,-1.157489,0.986692,0.369699,0.915797,-0.156954,0.000000,0.000000,0.000000,-1,-0.336722,0.631894,-0.223434,0.162787,-0.057704,-0.011136
"2018-06-06 23:18:29.783 +0000",1528327109.783049,1.181658,-1.161421,0.993434,0.368274,0.917369,-0.151010,0.000000,0.000000,0.000000,-1,-0.370030,0.582542,-0.256847,0.144696,-0.026989,-0.026923
"2018-06-06 23:18:29.793 +0000",1528327109.793123,1.192818,-1.165402,0.999707,0.366539,0.918947,-0.145542,0.000000,0.000000,0.000000,-1,-0.378218,0.523325,-0.277438,0.139107,0.010466,-0.034634
"2018-06-06 23:18:29.803 +0000",1528327109.803197,1.203529,-1.169712,1.005890,0.364377,0.920638,-0.140184,0.000000,0.000000,0.000000,-1,-0.378881,0.490584,-0.323784,0.136722,0.036149,-0.033461
"2018-06-06 23:18:29.813 +0000",1528327109.813271,1.213577,-1.174317,1.011465,0.361791,0.922426,-0.135032,0.000000,0.000000,0.000000,-1,-0.359679,0.491898,-0.362547,0.142130,0.045408,-0.064675
"2018-06-06 23:18:29.823 +0000",1528327109.823345,1.224328,-1.179520,1.017158,0.358703,0.924423,-0.129503,0.000000,0.000000,0.000000,-1,-0.345601,0.549282,-0.424800,0.160630,0.028519,-0.088957
"2018-06-06 23:18:29.833 +0000",1528327109.833419,1.232181,-1.179883,1.019691,0.359391,0.924562,-0.126570,0.000000,0.000000,0.000000,-1,-0.314560,0.563964,-0.502275,0.155608,0.025054,-0.098375
"2018-06-06 23:18:29.843 +0000",1528327109.843493,1.239726,-1.180892,1.021977,0.359454,0.924945,-0.123552,0.000000,0.000000,0.000000,-1,-0.284708,0.533535,-0.556214,0.150907,0.036999,-0.116850
"2018-06-06 23:18:29.854 +0000",1528327109.853567,1.246637,-1.187237,1.023873,0.354729,0.927338,-0.119193,0.000000,0.000000,0.000000,-1,-0.266666,0.504031,-0.576778,0.156441,0.050765,-0.122124
"2018-06-06 23:18:29.864 +0000",1528327109.863641,1.254074,-1.193721,1.026302,0.349884,0.929746,-0.114676,0.000000,0.000000,0.000000,-1,-0.256116,0.507381,-0.583247,0.178391,0.063006,-0.112069
"2018-06-06 23:18:29.874 +0000",1528327109.873715,1.260554,-1.200073,1.027587,0.344989,0.932065,-0.110602,0.000000,0.000000,0.000000,-1,-0.226703,0.529432,-0.586477,0.196652,0.071932,-0.102106
"2018-06-06 23:18:29.884 +0000",1528327109.883789,1.264973,-1.206211,1.026534,0.340012,0.934272,-0.107352,0.000000,0.000000,0.000000,-1,-0.118456,0.535258,-0.595313,0.187713,0.075998,-0.152292
"2018-06-06 23:18:29.894 +0000",1528327109.893863,1.265244,-1.212007,1.021074,0.334871,0.936323,-0.105628,0.000000,0.000000,0.000000,-1,0.054947,0.531401,-0.607553,0.158873,0.094195,-0.232919
"2018-06-06 23:18:29.904 +0000",1528327109.903937,1.261213,-1.216917,1.011777,0.330059,0.938035,-0.105576,0.000000,0.000000,0.000000,-1,0.223646,0.415225,-0.540512,0.197147,0.133772,-0.260696
"2018-06-06 23:18:29.914 +0000",1528327109.914011,1.250829,-1.220046,0.998463,0.326157,0.939115,-0.108073,0.000000,0.000000,0.000000,-1,0.376161,0.137314,-0.397533,0.354385,0.187502,-0.221303
"2018-06-06 23:18:29.924 +0000",1528327109.924085,1.234387,-1.220861,0.982014,0.323614,0.939395,-0.113168,0.000000,0.000000,0.000000,-1,0.549346,-0.185755,-0.205254,0.516993,0.287107,-0.141669
"2018-06-06 23:18:29.934 +0000",1528327109.934159,1.211060,-1.218956,0.962621,0.322561,0.938740,-0.121316,0.000000,0.000000,0.000000,-1,0.740454,-0.611980,-0.009012,0.607646,0.392299,-0.096092
"2018-06-06 23:18:29.944 +0000",1528327109.944233,1.178960,-1.215297,0.936465,0.321674,0.937473,-0.132917,0.000000,0.000000,0.000000,-1,1.091380,-0.773497,-0.003832,0.438336,0.393963,-0.187304
"2018-06-06 23:18:29.954 +0000",1528327109.954307,1.138124,-1.209361,0.900867,0.321026,0.935390,-0.148269,0.000000,0.000000,0.000000,-1,1.455269,-0.734358,0.066441,0.202274,0.228444,-0.329651
"2018-06-06 23:18:29.964 +0000",1528327109.964381,1.094076,-1.200792,0.861617,0.321296,0.932326,-0.165933,0.000000,0.000000,0.000000,-1,1.669697,-0.740837,0.183176,0.123635,0.101198,-0.317908
"2018-06-06 23:18:29.974 +0000",1528327109.974456,1.050013,-1.190046,0.822978,0.322347,0.928386,-0.184899,0.000000,0.000000,0.000000,-1,1.765608,-0.831027,0.288108,0.049876,0.085225,-0.282981
"2018-06-06 23:18:29.985 +0000",1528327109.984530,1.006119,-1.177579,0.785975,0.323676,0.923681,-0.205044,0.000000,0.000000,0.000000,-1,1.877745,-1.015372,0.343248,-0.047767,0.155161,-0.328541
"2018-06-06 23:18:29.995 +0000",1528327109.994604,0.959035,-1.163094,0.747500,0.324587,0.918034,-0.227712,0.000000,0.000000,0.000000,-1,2.097173,-1.197137,0.377713,-0.108354,0.275523,-0.380671
"2018-06-06 23:18:30.005 +0000",1528327110.004678,0.908920,-1.145954,0.706650,0.325139,0.911104,-0.253321,0.000000,0.000000,0.000000,-1,2.413288,-1.281948,0.392877,-0.068943,0.384459,-0.342337
"2018-06-06 23:18:30.015 +0000",1528327110.014752,0.856469,-1.126037,0.663082,0.325058,0.902714,-0.281852,0.000000,0.000000,0.000000,-1,2.737033,-1.278719,0.360952,0.022476,0.415203,-0.232125
"2018-06-06 23:18:30.025 +0000",1528327110.024826,0.805546,-1.104047,0.620183,0.324531,0.893036,-0.311711,0.000000,0.000000,0.000000,-1,2.902061,-1.226569,0.338137,0.127251,0.396592,-0.078014
"2018-06-06 23:18:30.035 +0000",1528327110.034900,0.758626,-1.080967,0.580439,0.323649,0.882413,-0.341459,0.000000,0.000000,0.000000,-1,2.895840,-1.130987,0.315840,0.219518,0.383456,0.039061
"2018-06-06 23:18:30.045 +0000",1528327110.044974,0.716390,-1.057939,0.545369,0.322203,0.871346,-0.370050,0.000000,0.000000,0.000000,-1,2.784694,-1.149864,0.293452,0.250642,0.396949,0.054575
"2018-06-06 23:18:30.055 +0000",1528327110.055048,0.679973,-1.035742,0.515231,0.320601,0.860241,-0.396480,0.000000,0.000000,0.000000,-1,2.594618,-0.950476,0.264349,0.264849,0.400211,0.113613
"2018-06-06 23:18:30.065 +0000",1528327110.065122,0.652635,-1.015379,0.491301,0.320216,0.849681,-0.418928,0.000000,0.000000,0.000000,-1,2.308544,-0.637356,0.275596,0.249059,0.384496,0.282728
"2018-06-06 23:18:30.075 +0000",1528327110.075196,0.630556,-0.996376,0.472355,0.320353,0.839507,-0.438860,0.000000,0.000000,0.000000,-1,2.057027,-0.599879,0.334365,0.249593,0.324174,0.292772
"2018-06-06 23:18:30.085 +0000",1528327110.085270,0.611183,-0.978286,0.456846,0.320455,0.829541,-0.457348,0.000000,0.000000,0.000000,-1,1.929788,-0.661821,0.361368,0.159419,0.265689,0.238140
"2018-06-06 23:18:30.095 +0000",1528327110.095344,0.591948,-0.960436,0.443330,0.319811,0.819441,-0.475640,0.000000,0.000000,0.000000,-1,1.878334,-0.862953,0.384565,0.032423,0.196992,0.219232
"2018-06-06 23:18:30.105 +0000",1528327110.105418,0.572464,-0.943095,0.432196,0.318134,0.809380,-0.493652,0.000000,0.000000,0.000000,-1,1.818587,-1.126654,0.401145,-0.102589,0.129875,0.284469
"2018-06-06 23:18:30.115 +0000",1528327110.115492,0.550672,-0.925868,0.421621,0.314552,0.799143,-0.512274,0.000000,0.000000,0.000000,-1,1.770738,-1.386839,0.372531,-0.248039,0.093222,0.336478
"2018-06-06 23:18:30.126 +0000",1528327110.125566,0.526741,-0.908893,0.411485,0.308980,0.788824,-0.531306,0.000000,0.000000,0.000000,-1,1.759741,-1.636987,0.330954,-0.331273,0.075022,0.303676
"2018-06-06 23:18:30.136 +0000",1528327110.135640,0.501276,-0.891770,0.402065,0.301798,0.778185,-0.550766,0.000000,0.000000,0.000000,-1,1.771473,-1.837853,0.332494,-0.320918,0.080977,0.220536
"2018-06-06 23:18:30.146 +0000",1528327110.145714,0.476144,-0.874551,0.393740,0.293961,0.767256,-0.570002,0.000000,0.000000,0.000000,-1,1.816631,-1.872878,0.337667,-0.269196,0.121798,0.130976
"2018-06-06 23:18:30.156 +0000",1528327110.155788,0.452056,-0.856661,0.385826,0.286098,0.755660,-0.589172,0.000000,0.000000,0.000000,-1,1.810208,-1.774111,0.341196,-0.230098,0.166703,0.137710
"2018-06-06 23:18:30.166 +0000",1528327110.165862,0.429279,-0.839259,0.379497,0.278037,0.744148,-0.607401,0.000000,0.000000,0.000000,-1,1.709191,-1.815132,0.370350,-0.172111,0.182640,0.211680
"2018-06-06 23:18:30.176 +0000",1528327110.175936,0.407145,-0.821974,0.375055,0.269580,0.732491,-0.625125,0.000000,0.000000,0.000000,-1,1.696043,-1.884660,0.449776,-0.096133,0.212730,0.340655
"2018-06-06 23:18:30.186 +0000",1528327110.186010,0.385896,-0.804158,0.372522,0.261108,0.720247,-0.642701,0.000000,0.000000,0.000000,-1,1.788785,-1.964984,0.555818,-0.002059,0.176085,0.394227
"2018-06-06 23:18:30.196 +0000",1528327110.196084,0.364703,-0.784275,0.370951,0.252487,0.706312,-0.661341,0.000000,0.000000,0.000000,-1,1.902654,-1.999053,0.640435,0.026947,0.140063,0.379801
"2018-06-06 23:18:30.206 +0000",1528327110.206158,0.344539,-0.763788,0.370746,0.243939,0.691662,-0.679776,0.000000,0.000000,0.000000,-1,1.897919,-1.985079,0.708252,0.056873,0.079044,0.378399
"2018-06-06 23:18:30.216 +0000",1528327110.216232,0.324766,-0.744545,0.372741,0.234655,0.677638,-0.696952,0.000000,0.000000,0.000000,-1,1.703209,-2.140703,0.779237,0.118678,0.007314,0.442100
"2018-06-06 23:18:30.226 +0000",1528327110.226306,0.304695,-0.727589,0.376522,0.224035,0.665071,-0.712381,0.000000,0.000000,0.000000,-1,1.553135,-2.313492,0.784457,0.116373,-0.039339,0.465097
"2018-06-06 23:18:30.236 +0000",1528327110.236380,0.281916,-0.711152,0.380328,0.210765,0.652707,-0.727702,0.000000,0.000000,0.000000,-1,1.455088,-2.586878,0.729028,0.079549,-0.072568,0.420939
"2018-06-06 23:18:30.246 +0000",1528327110.246454,0.256914,-0.696285,0.383963,0.194951,0.641372,-0.742048,0.000000,0.000000,0.000000,-1,1.300535,-2.730701,0.630004,0.042827,-0.141341,0.429517
"2018-06-06 23:18:30.257 +0000",1528327110.256528,0.231471,-0.683959,0.387130,0.177810,0.631866,-0.754405,0.000000,0.000000,0.000000,-1,1.073588,-2.718718,0.501481,-0.039443,-0.262985,0.472591
"2018-06-06 23:18:30.267 +0000",1528327110.266602,0.206654,-0.674540,0.390237,0.160249,0.624538,-0.764376,0.000000,0.000000,0.000000,-1,0.879864,-2.655232,0.417134,-0.084474,-0.257930,0.477145
"2018-06-06 23:18:30.277 +0000",1528327110.276676,0.182872,-0.666223,0.392967,0.142967,0.618021,-0.773052,0.000000,0.000000,0.000000,-1,0.736285,-2.481921,0.354504,-0.135124,-0.241541,0.475078
"2018-06-06 23:18:30.287 +0000",1528327110.286750,0.161459,-0.659184,0.395541,0.127078,0.612472,-0.780210,0.000000,0.000000,0.000000,-1,0.631355,-2.207572,0.307138,-0.166934,-0.212738,0.446989
"2018-06-06 23:18:30.297 +0000",1528327110.296824,0.143291,-0.653409,0.397955,0.113386,0.607896,-0.785878,0.000000,0.000000,0.000000,-1,0.502157,-1.863056,0.265410,-0.196348,-0.209734,0.431020
"2018-06-06 23:18:30.307 +0000",1528327110.306899,0.129000,-0.649829,0.400484,0.102424,0.605050,-0.789571,0.000000,0.000000,0.000000,-1,0.339228,-1.496733,0.236731,-0.221641,-0.214746,0.434316
"2018-06-06 23:18:30.317 +0000",1528327110.316973,0.117986,-0.647544,0.403080,0.093884,0.603229,-0.792022,0.000000,0.000000,0.000000,-1,0.154089,-1.168997,0.232730,-0.200604,-0.216098,0.421859
"2018-06-06 23:18:30.327 +0000",1528327110.327047,0.110102,-0.647161,0.406178,0.087662,0.602924,-0.792967,0.000000,0.000000,0.000000,-1,-0.042728,-0.908361,0.253301,-0.153183,-0.215915,0.400755
"2018-06-06 23:18:30.337 +0000",1528327110.337121,0.105166,-0.649001,0.409965,0.083630,0.604391,-0.792285,0.000000,0.000000,0.000000,-1,-0.272225,-0.645683,0.289011,-0.101971,-0.221380,0.376850
"2018-06-06 23:18:30.347 +0000",1528327110.347195,0.104005,-0.653861,0.414840,0.082404,0.608256,-0.789451,0.000000,0.000000,0.000000,-1,-0.526057,-0.344728,0.343174,-0.069373,-0.246714,0.331184
"2018-06-06 23:18:30.357 +0000",1528327110.357269,0.106272,-0.660691,0.420828,0.083751,0.613663,-0.785113,0.000000,0.000000,0.000000,-1,-0.789450,-0.076809,0.415549,-0.070003,-0.301117,0.275942
"2018-06-06 23:18:30.367 +0000",1528327110.367343,0.111308,-0.669940,0.427903,0.087070,0.620939,-0.779007,0.000000,0.000000,0.000000,-1,-1.030496,0.113348,0.459680,-0.104831,-0.353727,0.208939
"2018-06-06 23:18:30.377 +0000",1528327110.377417,0.118389,-0.681167,0.435747,0.091755,0.629700,-0.771399,0.000000,0.000000,0.000000,-1,-1.219841,0.241172,0.480923,-0.145816,-0.372880,0.136497
"2018-06-06 23:18:30.387 +0000",1528327110.387491,0.127145,-0.694350,0.444251,0.097444,0.639886,-0.762266,0.000000,0.000000,0.000000,-1,-1.347027,0.346207,0.480444,-0.160707,-0.378625,0.068922
"2018-06-06 23:18:30.398 +0000",1528327110.397565,0.137445,-0.707898,0.452791,0.104093,0.650238,-0.752565,0.000000,0.000000,0.000000,-1,-1.439454,0.529373,0.457525,-0.180799,-0.379211,0.066743
"2018-06-06 23:18:30.408 +0000",1528327110.407639,0.150827,-0.722661,0.461459,0.112699,0.661383,-0.741532,0.000000,0.000000,0.000000,-1,-1.589715,0.855128,0.425471,-0.205824,-0.386541,0.176377
"2018-06-06 23:18:30.418 +0000",1528327110.417713,0.168105,-0.739808,0.470605,0.123578,0.674146,-0.728185,0.000000,0.000000,0.000000,-1,-1.862815,1.187158,0.386188,-0.229672,-0.398130,0.350759
"2018-06-06 23:18:30.428 +0000",1528327110.427787,0.188530,-0.760580,0.480546,0.135770,0.689342,-0.711598,0.000000,0.000000,0.000000,-1,-2.169191,1.377593,0.320754,-0.286893,-0.407710,0.405019
"2018-06-06 23:18:30.438 +0000",1528327110.437861,0.208711,-0.781896,0.489339,0.147024,0.704626,-0.694179,0.000000,0.000000,0.000000,-1,-2.166782,1.381636,0.143279,-0.386938,-0.365088,0.175761
"2018-06-06 23:18:30.448 +0000",1528327110.447935,0.220427,-0.797962,0.492575,0.152651,0.715935,-0.681273,0.000000,0.000000,0.000000,-1,-1.328282,0.675243,-0.223189,-0.534762,-0.129418,-0.394533
"2018-06-06 23:18:30.458 +0000",1528327110.458009,0.216711,-0.805046,0.489158,0.149024,0.720863,-0.676865,0.000000,0.000000,0.000000,-1,-0.507130,-0.270407,-0.352595,-0.454688,0.521401,-1.297912
"2018-06-06 23:18:30.468 +0000",1528327110.468083,0.221239,-0.810536,0.492682,0.151217,0.724656,-0.672313,0.000000,0.000000,0.000000,-1,-0.610316,0.497337,0.269446,0.665174,1.282286,-0.854436
"2018-06-06 23:18:30.478 +0000",1528327110.478157,0.244365,-0.821847,0.500477,0.164730,0.732405,-0.660640,0.000000,0.000000,0.000000,-1,-1.434600,2.052042,0.184427,0.977330,1.833681,0.502406
"2018-06-06 23:18:30.488 +0000",1528327110.488231,0.272313,-0.838204,0.507496,0.179879,0.743443,-0.644153,0.000000,0.000000,0.000000,-1,-1.669979,2.247408,0.037095,0.448920,1.484538,0.547397
"2018-06-06 23:18:30.498 +0000",1528327110.498305,0.297889,-0.850430,0.515394,0.193612,0.751564,-0.630605,0.000000,0.000000,0.000000,-1,-1.194003,1.830884,0.202594,0.226905,0.617363,0.090444
"2018-06-06 23:18:30.508 +0000",1528327110.508379,0.320122,-0.859140,0.524465,0.205515,0.757281,-0.619908,0.000000,0.000000,0.000000,-1,-0.864801,1.420692,0.331875,-0.176950,0.025998,0.303502
"2018-06-06 23:18:30.518 +0000",1528327110.518453,0.338057,-0.864519,0.532333,0.215245,0.760783,-0.612271,0.000000,0.000000,0.000000,-1,-0.619385,1.132886,0.277770,-0.512425,-0.459163,0.293805
"2018-06-06 23:18:30.529 +0000",1528327110.528527,0.354353,-0.870431,0.537112,0.223629,0.764607,-0.604453,0.000000,0.000000,0.000000,-1,-0.700537,1.336849,0.015016,-0.633785,-0.702534,0.248451
"2018-06-06 23:18:30.539 +0000",1528327110.538601,0.374015,-0.880770,0.540501,0.232569,0.771229,-0.592549,0.000000,0.000000,0.000000,-1,-1.170826,1.823919,-0.215905,-0.397181,-0.710499,0.605031
"2018-06-06 23:18:30.549 +0000",1528327110.548675,0.398893,-0.896934,0.544256,0.242363,0.781417,-0.575017,0.000000,0.000000,0.000000,-1,-1.601251,2.277025,-0.436260,-0.193413,-0.594634,0.798085
"2018-06-06 23:18:30.559 +0000",1528327110.558749,0.426522,-0.916060,0.546791,0.251925,0.793209,-0.554392,0.000000,0.000000,0.000000,-1,-1.859130,2.612149,-0.679942,-0.144427,-0.341243,0.603845
"2018-06-06 23:18:30.569 +0000",1528327110.568823,0.454251,-0.936957,0.548231,0.259869,0.805760,-0.532181,0.000000,0.000000,0.000000,-1,-1.897814,2.605024,-0.839069,-0.045544,0.110103,0.433945
"2018-06-06 23:18:30.579 +0000",1528327110.578897,0.476405,-0.955820,0.547197,0.264576,0.816787,-0.512694,0.000000,0.000000,0.000000,-1,-1.540816,2.141929,-0.903621,0.055386,0.777268,0.162551
"2018-06-06 23:18:30.589 +0000",1528327110.588971,0.491270,-0.971166,0.545529,0.266222,0.825545,-0.497593,0.000000,0.000000,0.000000,-1,-1.141477,1.404498,-0.703384,0.263487,1.270601,-0.021038
"2018-06-06 23:18:30.599 +0000",1528327110.599045,0.503765,-0.981551,0.549472,0.268266,0.831360,-0.486693,0.000000,0.000000,0.000000,-1,-0.990752,0.793334,-0.149399,0.559783,1.268585,-0.032472
"2018-06-06 23:18:30.609 +0000",1528327110.609119,0.522109,-0.989283,0.562160,0.273934,0.835632,-0.476104,0.000000,0.000000,0.000000,-1,-1.022857,0.821955,0.334798,0.653618,0.813888,0.026290
"2018-06-06 23:18:30.619 +0000",1528327110.619193,0.549202,-0.996231,0.580572,0.283693,0.839429,-0.463545,0.000000,0.000000,0.000000,-1,-1.138334,1.281824,0.544002,0.484342,0.244174,0.163801
"2018-06-06 23:18:30.629 +0000",1528327110.629267,0.583774,-1.004581,0.602320,0.295672,0.843937,-0.447598,0.000000,0.000000,0.000000,-1,-1.283597,1.673355,0.536869,0.246625,-0.078450,0.254513
"2018-06-06 23:18:30.639 +0000",1528327110.639341,0.620141,-1.013326,0.624138,0.307450,0.848596,-0.430529,0.000000,0.000000,0.000000,-1,-1.386854,1.790986,0.427731,0.048721,-0.192026,0.208467
"2018-06-06 23:18:30.649 +0000",1528327110.649415,0.654712,-1.022489,0.644426,0.317399,0.853408,-0.413459,0.000000,0.000000,0.000000,-1,-1.337193,1.674336,0.267007,-0.110505,-0.187697,0.107811
"2018-06-06 23:18:30.659 +0000",1528327110.659490,0.684540,-1.030917,0.661547,0.325029,0.857771,-0.398223,0.000000,0.000000,0.000000,-1,-1.149091,1.453618,0.145462,-0.168550,-0.170546,0.002150
"2018-06-06 23:18:30.670 +0000",1528327110.669563,0.711179,-1.038991,0.677419,0.330989,0.861893,-0.384165,0.000000,0.000000,0.000000,-1,-1.041373,1.202716,0.100384,-0.105327,-0.190659,0.002848
"2018-06-06 23:18:30.680 +0000",1528327110.679638,0.734195,-1.046110,0.691450,0.335623,0.865481,-0.371881,0.000000,0.000000,0.000000,-1,-0.975681,1.049443,0.044930,-0.056265,-0.186709,0.059381
"2018-06-06 23:18:30.690 +0000",1528327110.689712,0.755533,-1.053019,0.704793,0.339373,0.868922,-0.360274,0.000000,0.000000,0.000000,-1,-0.952243,0.938756,0.015512,-0.021395,-0.161906,0.053084
"2018-06-06 23:18:30.700 +0000",1528327110.699786,0.776846,-1.060058,0.719415,0.342678,0.872384,-0.348590,0.000000,0.000000,0.000000,-1,-1.018493,0.823203,0.040067,0.027134,-0.162591,0.073504
"2018-06-06 23:18:30.710 +0000",1528327110.709860,0.800662,-1.067515,0.737882,0.346202,0.876005,-0.335791,0.000000,0.000000,0.000000,-1,-1.106318,0.705084,0.138884,0.081899,-0.150739,0.052466
"2018-06-06 23:18:30.720 +0000",1528327110.719934,0.826340,-1.073823,0.759667,0.350638,0.879030,-0.323041,0.000000,0.000000,0.000000,-1,-1.212547,0.641531,0.302441,0.126825,-0.107744,0.066632
"2018-06-06 23:18:30.730 +0000",1528327110.730008,0.855863,-1.079145,0.786077,0.356483,0.881554,-0.309479,0.000000,0.000000,0.000000,-1,-1.295791,0.610925,0.477872,0.153923,-0.090478,0.113876
"2018-06-06 23:18:30.740 +0000",1528327110.740082,0.887372,-1.083260,0.815091,0.363240,0.883490,-0.295801,0.000000,0.000000,0.000000,-1,-1.292335,0.587463,0.577831,0.146999,-0.116568,0.094034
"2018-06-06 23:18:30.750 +0000",1528327110.750156,0.920021,-1.086601,0.844890,0.370352,0.885050,-0.281996,0.000000,0.000000,0.000000,-1,-1.193786,0.598621,0.600227,0.118647,-0.136866,0.065260
"2018-06-06 23:18:30.760 +0000",1528327110.760230,0.949599,-1.088525,0.871497,0.377144,0.885944,-0.269929,0.000000,0.000000,0.000000,-1,-1.075887,0.603485,0.565550,0.126167,-0.137348,0.079423
"2018-06-06 23:18:30.770 +0000",1528327110.770304,0.978454,-1.090318,0.896546,0.383456,0.886774,-0.258048,0.000000,0.000000,0.000000,-1,-1.048047,0.677441,0.487179,0.118574,-0.140818,0.140677
"2018-06-06 23:18:30.780 +0000",1528327110.780378,1.007254,-1.093057,0.921039,0.388673,0.888036,-0.245601,0.000000,0.000000,0.000000,-1,-1.104748,0.700930,0.345392,0.045226,-0.130575,0.143657
"2018-06-06 23:18:30.790 +0000",1528327110.790452,1.036547,-1.097672,0.945687,0.392168,0.890149,-0.232022,0.000000,0.000000,0.000000,-1,-1.124233,0.707198,0.146461,-0.083773,-0.074368,0.051053
"2018-06-06 23:18:30.801 +0000",1528327110.800526,1.062214,-1.102397,0.966480,0.394315,0.892292,-0.219831,0.000000,0.000000,0.000000,-1,-1.012113,0.709036,0.044023,-0.167143,-0.010105,-0.074847
"2018-06-06 23:18:30.811 +0000",1528327110.810600,1.086277,-1.106613,0.985370,0.396158,0.894188,-0.208525,0.000000,0.000000,0.000000,-1,-0.923820,0.711514,0.035223,-0.153955,0.043709,-0.082063
"2018-06-06 23:18:30.821 +0000",1528327110.820674,1.109587,-1.110390,1.003744,0.397883,0.895872,-0.197730,0.000000,0.000000,0.000000,-1,-0.884930,0.666606,0.037155,-0.124156,0.087984,-0.017831
"2018-06-06 23:18:30.831 +0000",1528327110.830748,1.132475,-1.113912,1.022547,0.399445,0.897431,-0.187233,0.000000,0.000000,0.000000,-1,-0.808265,0.533914,0.054879,-0.061585,0.092757,-0.028481
"2018-06-06 23:18:30.841 +0000",1528327110.840822,1.151267,-1.116363,1.037994,0.400883,0.898510,-0.178797,0.000000,0.000000,0.000000,-1,-0.685367,0.476049,0.060883,0.006939,0.085560,-0.057135
"2018-06-06 23:18:30.851 +0000",1528327110.850896,1.167929,-1.118485,1.051203,0.402051,0.899439,-0.171345,0.000000,0.000000,0.000000,-1,-0.585266,0.480895,0.018718,0.067248,0.069860,-0.028316
"2018-06-06 23:18:30.861 +0000",1528327110.860970,1.182331,-1.121173,1.061600,0.402238,0.900611,-0.164621,0.000000,0.000000,0.000000,-1,-0.498193,0.503620,-0.107266,0.092834,0.051568,-0.011130
"2018-06-06 23:18:30.871 +0000",1528327110.871044,1.195761,-1.125136,1.070678,0.401087,0.902326,-0.157895,0.000000,0.000000,0.000000,-1,-0.431972,0.485732,-0.248379,0.112234,0.051165,-0.004627
"2018-06-06 23:18:30.881 +0000",1528327110.881118,1.206086,-1.129574,1.076779,0.398951,0.904230,-0.152316,0.000000,0.000000,0.000000,-1,-0.397701,0.478500,-0.333455,0.138540,0.052694,0.008593
"2018-06-06 23:18:30.891 +0000",1528327110.891192,1.215748,-1.134435,1.082596,0.396277,0.906296,-0.146924,0.000000,0.000000,0.000000,-1,-0.398359,0.415008,-0.376664,0.159021,0.044144,0.024793
"2018-06-06 23:18:30.901 +0000",1528327110.901266,1.224421,-1.139437,1.087936,0.393268,0.908398,-0.141941,0.000000,0.000000,0.000000,-1,-0.370920,0.383304,-0.389726,0.147870,0.026355,-0.037304
"2018-06-06 23:18:30.911 +0000",1528327110.911340,1.235144,-1.144464,1.094663,0.390450,0.910489,-0.136209,0.000000,0.000000,0.000000,-1,-0.372171,0.453485,-0.372309,0.162925,-0.001919,-0.044806
"2018-06-06 23:18:30.921 +0000",1528327110.921414,1.245990,-1.149367,1.101247,0.387669,0.912505,-0.130541,0.000000,0.000000,0.000000,-1,-0.426782,0.480794,-0.376407,0.180431,-0.008452,-0.030821
"2018-06-06 23:18:30.931 +0000",1528327110.931488,1.257603,-1.154752,1.108686,0.384478,0.914695,-0.124514,0.000000,0.000000,0.000000,-1,-0.455800,0.476534,-0.426908,0.177931,0.010232,-0.057310
"2018-06-06 23:18:30.942 +0000",1528327110.941562,1.268859,-1.160649,1.115666,0.380698,0.917062,-0.118572,0.000000,0.000000,0.000000,-1,-0.435380,0.493318,-0.489294,0.192697,0.016242,-0.076053
