timestamp,timeIntervalSince1970,attitude.roll,attitude.pitch,attitude.yaw,gravity.x,gravity.y,gravity.z,magneticField.x,magneticField.y,magneticField.z,magneticField.accuracy,rotationRate.x,rotationRate.y,rotationRate.z,userAcceleration.x,userAcceleration.y,userAcceleration.z
"2018-06-07 00:16:19.547 +0000",1528330579.546939,-0.167633,0.179202,0.030154,-0.164177,-0.178245,-0.970193,0.000000,0.000000,0.000000,-1,-0.613843,1.339701,0.479796,0.118248,0.071449,-0.070273
"2018-06-07 00:16:19.557 +0000",1528330579.557013,-0.154363,0.171377,0.034900,-0.151499,-0.170540,-0.973635,0.000000,0.000000,0.000000,-1,-0.738818,1.409082,0.606134,0.117502,0.042686,0.038011
"2018-06-07 00:16:19.567 +0000",1528330579.567086,-0.141519,0.160889,0.039637,-0.139226,-0.160196,-0.977217,0.000000,0.000000,0.000000,-1,-1.048560,1.327002,0.602302,0.103520,0.058405,0.177809
"2018-06-07 00:16:19.577 +0000",1528330579.577159,-0.130109,0.146934,0.043551,-0.128345,-0.146405,-0.980863,0.000000,0.000000,0.000000,-1,-1.415643,1.152735,0.554232,0.072650,0.022306,0.264677
"2018-06-07 00:16:19.587 +0000",1528330579.587233,-0.120020,0.128703,0.046674,-0.118741,-0.128348,-0.984595,0.000000,0.000000,0.000000,-1,-1.875311,1.009978,0.522600,-0.014910,-0.006723,0.293112
"2018-06-07 00:16:19.597 +0000",1528330579.597306,-0.110287,0.106239,0.048990,-0.109443,-0.106040,-0.988321,0.000000,0.000000,0.000000,-1,-2.280296,1.012389,0.464374,-0.050790,0.031104,0.224405
"2018-06-07 00:16:19.607 +0000",1528330579.607380,-0.097879,0.081424,0.050295,-0.097399,-0.081334,-0.991916,0.000000,0.000000,0.000000,-1,-2.466738,1.343851,0.356050,-0.032926,0.112645,0.153538
"2018-06-07 00:16:19.617 +0000",1528330579.617453,-0.081616,0.056942,0.051152,-0.081394,-0.056911,-0.995056,0.000000,0.000000,0.000000,-1,-2.372062,1.697859,0.293400,0.027988,0.159221,0.006546
"2018-06-07 00:16:19.628 +0000",1528330579.627526,-0.063591,0.035518,0.052560,-0.063509,-0.035510,-0.997349,0.000000,0.000000,0.000000,-1,-2.003520,1.807552,0.296102,0.098329,0.103732,-0.231075
"2018-06-07 00:16:19.638 +0000",1528330579.637600,-0.045582,0.019461,0.054475,-0.045557,-0.019460,-0.998772,0.000000,0.000000,0.000000,-1,-1.429766,1.786230,0.263532,0.114100,0.047566,-0.373146
"2018-06-07 00:16:19.648 +0000",1528330579.647673,-0.027947,0.009487,0.055880,-0.027942,-0.009487,-0.999565,0.000000,0.000000,0.000000,-1,-0.847974,1.746633,0.143763,0.026935,0.062557,-0.373894
"2018-06-07 00:16:19.658 +0000",1528330579.657747,-0.009443,0.003673,0.056389,-0.009442,-0.003673,-0.999949,0.000000,0.000000,0.000000,-1,-0.510170,1.887414,0.042289,-0.046481,0.134258,-0.298300
"2018-06-07 00:16:19.668 +0000",1528330579.667820,0.012090,-0.000648,0.057225,0.012090,0.000648,-0.999927,0.000000,0.000000,0.000000,-1,-0.417591,2.238648,0.116242,0.041178,0.171593,-0.161313
"2018-06-07 00:16:19.678 +0000",1528330579.677893,0.038383,-0.005440,0.060698,0.038373,0.005440,-0.999249,0.000000,0.000000,0.000000,-1,-0.526470,2.742056,0.418061,0.174746,0.099403,-0.027149
"2018-06-07 00:16:19.688 +0000",1528330579.687967,0.070169,-0.012867,0.067953,0.070106,0.012867,-0.997457,0.000000,0.000000,0.000000,-1,-0.874100,3.277574,0.758167,0.172982,0.095715,0.097081
"2018-06-07 00:16:19.698 +0000",1528330579.698040,0.105771,-0.023940,0.078408,0.105544,0.023938,-0.994126,0.000000,0.000000,0.000000,-1,-1.285745,3.558701,0.985813,0.122255,0.145908,0.169496
"2018-06-07 00:16:19.708 +0000",1528330579.708114,0.140721,-0.037238,0.090587,0.140159,0.037229,-0.989429,0.000000,0.000000,0.000000,-1,-1.494961,3.351523,1.037321,0.072518,0.077136,0.104327
"2018-06-07 00:16:19.718 +0000",1528330579.718187,0.172000,-0.050623,0.102265,0.170934,0.050601,-0.983982,0.000000,0.000000,0.000000,-1,-1.478734,2.958095,0.887700,-0.034353,0.019040,-0.025478
"2018-06-07 00:16:19.728 +0000",1528330579.728261,0.200236,-0.063015,0.111752,0.198506,0.062973,-0.978074,0.000000,0.000000,0.000000,-1,-1.345200,2.692793,0.628468,-0.094807,0.024185,-0.090437
"2018-06-07 00:16:19.738 +0000",1528330579.738334,0.227011,-0.074057,0.118688,0.224450,0.073989,-0.971673,0.000000,0.000000,0.000000,-1,-1.175140,2.594412,0.379318,-0.103218,0.019623,-0.104743
"2018-06-07 00:16:19.748 +0000",1528330579.748407,0.253180,-0.084042,0.123363,0.249600,0.083943,-0.964704,0.000000,0.000000,0.000000,-1,-1.040009,2.550704,0.158374,-0.080853,0.005062,-0.095309
"2018-06-07 00:16:19.758 +0000",1528330579.758481,0.276430,-0.092642,0.125740,0.271753,0.092510,-0.957910,0.000000,0.000000,0.000000,-1,-0.814316,2.131744,-0.046658,-0.054467,-0.012035,-0.106802
"2018-06-07 00:16:19.769 +0000",1528330579.768554,0.290492,-0.098822,0.125591,0.285026,0.098661,-0.953429,0.000000,0.000000,0.000000,-1,-0.533611,1.162883,-0.235130,0.050042,-0.016996,-0.072191
"2018-06-07 00:16:19.779 +0000",1528330579.778628,0.300650,-0.106718,0.124712,0.294456,0.106516,-0.949710,0.000000,0.000000,0.000000,-1,-0.843820,1.058056,-0.312171,0.087532,0.080649,0.162891
"2018-06-07 00:16:19.789 +0000",1528330579.788701,0.314913,-0.119627,0.127719,0.307521,0.119342,-0.944028,0.000000,0.000000,0.000000,-1,-1.460950,1.488719,-0.015854,0.173909,0.159802,0.387647
"2018-06-07 00:16:19.799 +0000",1528330579.798774,0.331861,-0.135441,0.135261,0.322819,0.135028,-0.936779,0.000000,0.000000,0.000000,-1,-1.776160,1.582192,0.260505,0.265682,0.171140,0.282955
"2018-06-07 00:16:19.809 +0000",1528330579.808848,0.347712,-0.150911,0.144773,0.336875,0.150339,-0.929469,0.000000,0.000000,0.000000,-1,-1.735047,1.378622,0.402879,0.208749,0.160681,0.065868
"2018-06-07 00:16:19.819 +0000",1528330579.818921,0.361408,-0.164371,0.155491,0.348826,0.163632,-0.922792,0.000000,0.000000,0.000000,-1,-1.575321,1.134703,0.559924,0.151388,0.104343,-0.047408
"2018-06-07 00:16:19.829 +0000",1528330579.828995,0.373481,-0.175360,0.167032,0.359264,0.174462,-0.916784,0.000000,0.000000,0.000000,-1,-1.371356,0.967859,0.691275,0.097157,0.076102,-0.095545
"2018-06-07 00:16:19.839 +0000",1528330579.839068,0.384833,-0.183855,0.178830,0.369078,0.182821,-0.911240,0.000000,0.000000,0.000000,-1,-1.158767,0.921977,0.778858,0.063067,0.076929,-0.122467
"2018-06-07 00:16:19.849 +0000",1528330579.849142,0.397447,-0.190438,0.191083,0.380068,0.189289,-0.905383,0.000000,0.000000,0.000000,-1,-1.036862,1.078841,0.887675,0.077635,0.087978,-0.083890
"2018-06-07 00:16:19.859 +0000",1528330579.859215,0.414579,-0.195937,0.205080,0.395098,0.194686,-0.897772,0.000000,0.000000,0.000000,-1,-1.054694,1.592779,1.094659,0.159025,0.081087,0.005347
"2018-06-07 00:16:19.869 +0000",1528330579.869288,0.483548,-0.229100,0.230906,0.452775,0.227101,-0.862218,0.000000,0.000000,0.000000,-1,-1.270202,2.544289,1.275402,0.158813,0.013210,0.148763
"2018-06-07 00:16:19.879 +0000",1528330579.879362,0.522831,-0.236681,0.250800,0.485414,0.234477,-0.842255,0.000000,0.000000,0.000000,-1,-1.706572,3.748216,1.326157,0.138869,-0.085140,0.345825
"2018-06-07 00:16:19.889 +0000",1528330579.889435,0.575365,-0.247925,0.273567,0.527503,0.245393,-0.813340,0.000000,0.000000,0.000000,-1,-2.221989,4.991889,1.270719,0.184213,-0.156709,0.506196
"2018-06-07 00:16:19.900 +0000",1528330579.899509,0.643812,-0.261596,0.299463,0.579827,0.258623,-0.772602,0.000000,0.000000,0.000000,-1,-2.625787,6.559464,1.275128,0.188148,-0.144975,0.570011
"2018-06-07 00:16:19.910 +0000",1528330579.909582,0.772746,-0.295602,0.343302,0.667825,0.291316,-0.684942,0.000000,0.000000,0.000000,-1,-2.818993,7.807100,1.797660,0.144492,-0.270716,0.465154
"2018-06-07 00:16:19.920 +0000",1528330579.919655,0.861196,-0.297481,0.383315,0.725302,0.293112,-0.622914,0.000000,0.000000,0.000000,-1,-2.936358,7.336689,2.640942,0.280084,-0.445899,0.086643
"2018-06-07 00:16:19.930 +0000",1528330579.929729,0.927837,-0.296481,0.424989,0.765407,0.292157,-0.573407,0.000000,0.000000,0.000000,-1,-3.031845,4.670901,2.410748,0.223042,0.231662,-0.600619
"2018-06-07 00:16:19.940 +0000",1528330579.939802,0.966859,-0.299137,0.458862,0.786553,0.294696,-0.542668,0.000000,0.000000,0.000000,-1,-2.633215,2.419284,1.385725,-0.220253,0.916578,-0.736354
"2018-06-07 00:16:19.950 +0000",1528330579.949876,0.992519,-0.305674,0.482617,0.798586,0.300936,-0.521245,0.000000,0.000000,0.000000,-1,-2.090395,1.684413,0.545492,-0.520037,0.727766,-0.242930
"2018-06-07 00:16:19.960 +0000",1528330579.959949,1.013547,-0.313462,0.502337,0.807356,0.308354,-0.503083,0.000000,0.000000,0.000000,-1,-1.992983,1.433065,0.338014,-0.277861,0.104808,0.083940
"2018-06-07 00:16:19.970 +0000",1528330579.970023,1.034540,-0.319999,0.524508,0.815988,0.314566,-0.484985,0.000000,0.000000,0.000000,-1,-2.176949,1.407158,0.635238,0.052649,-0.244665,0.185699
"2018-06-07 00:16:19.980 +0000",1528330579.980096,1.057762,-0.322558,0.551558,0.826326,0.316994,-0.465510,0.000000,0.000000,0.000000,-1,-2.378808,1.464607,1.200581,0.161665,-0.306694,0.242014
"2018-06-07 00:16:19.990 +0000",1528330579.990169,1.081325,-0.322063,0.582085,0.837203,0.316524,-0.445986,0.000000,0.000000,0.000000,-1,-2.510885,1.277619,1.462797,0.142259,-0.170192,0.097628
"2018-06-07 00:16:20.000 +0000",1528330580.000243,1.101323,-0.322248,0.612593,0.845901,0.316700,-0.429129,0.000000,0.000000,0.000000,-1,-2.569642,0.954625,1.221047,-0.022186,0.090450,-0.069864
"2018-06-07 00:16:20.010 +0000",1528330580.010316,1.119314,-0.326404,0.641280,0.852293,0.320639,-0.413264,0.000000,0.000000,0.000000,-1,-2.611704,0.878792,0.689554,-0.143995,0.178308,-0.105932
"2018-06-07 00:16:20.020 +0000",1528330580.020390,1.136903,-0.334978,0.668176,0.856903,0.328748,-0.397039,0.000000,0.000000,0.000000,-1,-2.660477,0.867519,0.203442,-0.095246,0.096789,-0.103434
"2018-06-07 00:16:20.030 +0000",1528330580.030463,1.152644,-0.346109,0.694672,0.859649,0.339241,-0.381992,0.000000,0.000000,0.000000,-1,-2.716326,0.565270,-0.009212,0.025666,-0.088432,-0.166088
"2018-06-07 00:16:20.041 +0000",1528330580.040536,1.164087,-0.356880,0.721400,0.860558,0.349353,-0.370664,0.000000,0.000000,0.000000,-1,-2.697409,0.111714,0.045359,0.059440,-0.279468,-0.225101
"2018-06-07 00:16:20.051 +0000",1528330580.050610,1.172149,-0.365056,0.747280,0.860857,0.357002,-0.362593,0.000000,0.000000,0.000000,-1,-2.451919,-0.155230,0.252695,0.080015,-0.369789,-0.279070
"2018-06-07 00:16:20.061 +0000",1528330580.060683,1.179165,-0.369300,0.770253,0.861972,0.360963,-0.355963,0.000000,0.000000,0.000000,-1,-2.026308,-0.104546,0.490661,0.015531,-0.428529,-0.345224
"2018-06-07 00:16:20.071 +0000",1528330580.070757,1.187387,-0.371477,0.791089,0.864139,0.362992,-0.348568,0.000000,0.000000,0.000000,-1,-1.818802,0.160479,0.517848,-0.092197,-0.422776,-0.329288
"2018-06-07 00:16:20.081 +0000",1528330580.080830,1.200308,-0.374625,0.810685,0.867501,0.365923,-0.336959,0.000000,0.000000,0.000000,-1,-1.813625,0.746441,0.318395,-0.147515,-0.412615,-0.179078
"2018-06-07 00:16:20.091 +0000",1528330580.090904,1.222751,-0.380851,0.831401,0.872685,0.371711,-0.316623,0.000000,0.000000,0.000000,-1,-2.091606,1.733843,0.013194,-0.177327,-0.464881,0.021793
"2018-06-07 00:16:20.101 +0000",1528330580.100977,1.254798,-0.389538,0.853944,0.879280,0.379761,-0.287484,0.000000,0.000000,0.000000,-1,-2.256962,2.486071,-0.157418,-0.055077,-0.344269,0.050820
"2018-06-07 00:16:20.111 +0000",1528330580.111050,1.288902,-0.396315,0.875403,0.886079,0.386022,-0.256614,0.000000,0.000000,0.000000,-1,-1.991288,2.537826,-0.019117,0.211211,-0.225362,-0.194009
"2018-06-07 00:16:20.121 +0000",1528330580.121124,1.318637,-0.399272,0.893302,0.892207,0.388747,-0.229871,0.000000,0.000000,0.000000,-1,-1.548429,2.149464,0.215381,0.207875,-0.209762,-0.296527
"2018-06-07 00:16:20.131 +0000",1528330580.131197,1.342373,-0.398326,0.908145,0.897769,0.387876,-0.208715,0.000000,0.000000,0.000000,-1,-1.227516,1.673935,0.474644,0.125439,-0.254712,-0.334575
"2018-06-07 00:16:20.141 +0000",1528330580.141271,1.362237,-0.394560,0.921159,0.903160,0.384402,-0.191142,0.000000,0.000000,0.000000,-1,-1.040754,1.431041,0.667126,0.067283,-0.316027,-0.313085
"2018-06-07 00:16:20.151 +0000",1528330580.151344,1.380822,-0.388783,0.932324,0.908722,0.379063,-0.174741,0.000000,0.000000,0.000000,-1,-0.830561,1.425629,0.788177,0.015457,-0.417255,-0.330920
"2018-06-07 00:16:20.161 +0000",1528330580.161417,1.397823,-0.381837,0.939988,0.914133,0.372626,-0.159717,0.000000,0.000000,0.000000,-1,-0.471444,1.379346,0.806581,-0.060190,-0.450736,-0.428220
"2018-06-07 00:16:20.171 +0000",1528330580.171491,1.410412,-0.374439,0.942583,0.918767,0.365751,-0.148632,0.000000,0.000000,0.000000,-1,0.009321,1.071367,0.745424,-0.106450,-0.344327,-0.557865
"2018-06-07 00:16:20.182 +0000",1528330580.181564,1.418922,-0.367361,0.939997,0.922535,0.359154,-0.141197,0.000000,0.000000,0.000000,-1,0.442044,0.931449,0.627856,-0.096592,-0.154488,-0.518776
"2018-06-07 00:16:20.192 +0000",1528330580.191638,1.427289,-0.360880,0.935080,0.925968,0.353098,-0.133803,0.000000,0.000000,0.000000,-1,0.542286,1.029731,0.555844,-0.055302,-0.050440,-0.231462
"2018-06-07 00:16:20.202 +0000",1528330580.201711,1.439103,-0.354575,0.933819,0.929673,0.347192,-0.123144,0.000000,0.000000,0.000000,-1,0.043726,1.249827,0.620014,0.123260,-0.004892,0.146155
"2018-06-07 00:16:20.212 +0000",1528330580.211785,1.452029,-0.349269,0.939944,0.933003,0.342211,-0.111334,0.000000,0.000000,0.000000,-1,-0.688894,1.013025,0.582280,0.104183,0.060636,0.292730
"2018-06-07 00:16:20.222 +0000",1528330580.221859,1.465539,-0.345219,0.953670,0.935793,0.338403,-0.098864,0.000000,0.000000,0.000000,-1,-1.388760,0.824747,0.513418,-0.058305,0.069663,0.222140
"2018-06-07 00:16:20.232 +0000",1528330580.231931,1.476892,-0.343401,0.970684,0.937466,0.336692,-0.088292,0.000000,0.000000,0.000000,-1,-1.572414,0.446540,0.266415,-0.226528,0.125207,-0.047984
"2018-06-07 00:16:20.242 +0000",1528330580.242005,1.482331,-0.344161,0.985215,0.937677,0.337407,-0.083169,0.000000,0.000000,0.000000,-1,-1.255670,-0.084902,-0.018751,-0.338037,0.184474,-0.430228
"2018-06-07 00:16:20.252 +0000",1528330580.252078,1.481268,-0.346296,0.994131,0.936868,0.339416,-0.084101,0.000000,0.000000,0.000000,-1,-0.708017,-0.484564,-0.162077,-0.239847,0.155061,-0.637838
"2018-06-07 00:16:20.262 +0000",1528330580.262152,1.476155,-0.348307,0.997792,0.935744,0.341307,-0.088826,0.000000,0.000000,0.000000,-1,-0.262497,-0.685323,-0.160454,-0.017394,0.076250,-0.560589
"2018-06-07 00:16:20.272 +0000",1528330580.272225,1.468095,-0.349849,0.998992,0.934474,0.342756,-0.096310,0.000000,0.000000,0.000000,-1,-0.104954,-0.879295,-0.135564,0.140279,0.003604,-0.420703
"2018-06-07 00:16:20.282 +0000",1528330580.282298,1.461356,-0.351662,1.000280,0.933184,0.344458,-0.102538,0.000000,0.000000,0.000000,-1,-0.159397,-0.600373,-0.192713,0.204755,-0.043906,-0.232347
"2018-06-07 00:16:20.292 +0000",1528330580.292372,1.461742,-0.355769,1.002155,0.931809,0.348311,-0.102023,0.000000,0.000000,0.000000,-1,-0.232618,0.200851,-0.467731,0.170119,-0.064422,-0.044645
"2018-06-07 00:16:20.302 +0000",1528330580.302445,1.477911,-0.363153,1.005290,0.930751,0.355223,-0.086703,0.000000,0.000000,0.000000,-1,-0.450468,2.068858,-0.779113,0.074803,-0.083113,0.211275
"2018-06-07 00:16:20.313 +0000",1528330580.312519,1.505090,-0.373680,1.011747,0.928980,0.365044,-0.061128,0.000000,0.000000,0.000000,-1,-0.683940,2.275680,-1.039358,0.036306,-0.051094,0.290529
"2018-06-07 00:16:20.323 +0000",1528330580.322592,1.519720,-0.385156,1.016270,0.925530,0.375704,-0.047314,0.000000,0.000000,0.000000,-1,-0.411872,0.968380,-1.155651,-0.023629,-0.210649,-0.790515
"2018-06-07 00:16:20.333 +0000",1528330580.332666,1.524863,-0.397624,1.016827,0.921010,0.387229,-0.042335,0.000000,0.000000,0.000000,-1,0.008538,0.469430,-1.266706,-0.445088,-0.111609,-0.652306
"2018-06-07 00:16:20.343 +0000",1528330580.342739,1.531181,-0.412659,1.011657,0.915338,0.401047,-0.036280,0.000000,0.000000,0.000000,-1,0.545379,0.974075,-1.618203,-0.585748,0.049774,-0.346517
"2018-06-07 00:16:20.353 +0000",1528330580.352812,1.538658,-0.432661,0.999822,0.907383,0.419288,-0.029172,0.000000,0.000000,0.000000,-1,1.153197,1.255760,-2.157674,-0.318181,-0.040992,-0.259173
"2018-06-07 00:16:20.363 +0000",1528330580.362886,1.541923,-0.456896,0.981588,0.897051,0.441165,-0.025908,0.000000,0.000000,0.000000,-1,1.680351,1.030428,-2.525256,-0.181765,-0.185931,-0.316362
"2018-06-07 00:16:20.373 +0000",1528330580.372959,1.539307,-0.482040,0.959224,0.885611,0.463588,-0.027897,0.000000,0.000000,0.000000,-1,1.952818,0.626133,-2.531358,-0.039602,-0.208858,-0.271954
"2018-06-07 00:16:20.383 +0000",1528330580.383033,1.528209,-0.506460,0.934587,0.873673,0.485085,-0.037230,0.000000,0.000000,0.000000,-1,2.085629,-0.135489,-2.498382,0.119171,-0.203377,-0.098665
"2018-06-07 00:16:20.393 +0000",1528330580.393106,1.511792,-0.529389,0.910700,0.861612,0.505006,-0.050898,0.000000,0.000000,0.000000,-1,1.859877,-0.516677,-2.323644,0.207128,-0.165330,0.228571
"2018-06-07 00:16:20.403 +0000",1528330580.403179,1.497408,-0.551699,0.891459,0.849341,0.524135,-0.062444,0.000000,0.000000,0.000000,-1,1.349469,-0.403839,-2.344735,0.324975,-0.046062,0.639242
"2018-06-07 00:16:20.413 +0000",1528330580.413253,1.486518,-0.575753,0.877034,0.835804,0.544466,-0.070608,0.000000,0.000000,0.000000,-1,0.941142,-0.298823,-2.527430,0.284954,0.070631,0.706899
"2018-06-07 00:16:20.423 +0000",1528330580.423326,1.476443,-0.601370,0.863228,0.820892,0.565772,-0.077685,0.000000,0.000000,0.000000,-1,0.922194,-0.201689,-2.671260,0.209625,-0.066169,0.389483
"2018-06-07 00:16:20.433 +0000",1528330580.433400,1.466415,-0.629256,0.847314,0.804064,0.588543,-0.084236,0.000000,0.000000,0.000000,-1,1.029627,-0.050707,-3.002366,0.052275,-0.285748,0.116920
"2018-06-07 00:16:20.443 +0000",1528330580.443473,1.455260,-0.660456,0.831469,0.784446,0.613477,-0.091038,0.000000,0.000000,0.000000,-1,0.861245,-0.202877,-3.214325,-0.118614,-0.366925,0.008961
"2018-06-07 00:16:20.454 +0000",1528330580.453547,1.444095,-0.685422,0.816659,0.767945,0.632999,-0.097824,0.000000,0.000000,0.000000,-1,0.856489,-0.168190,-2.325730,0.326461,-0.035465,-0.002701
"2018-06-07 00:16:20.464 +0000",1528330580.463620,1.434035,-0.700302,0.801805,0.757506,0.644449,-0.104248,0.000000,0.000000,0.000000,-1,0.949347,-0.045400,-1.439254,0.502274,0.177054,-0.029083
"2018-06-07 00:16:20.474 +0000",1528330580.473693,1.421733,-0.711963,0.786003,0.748684,0.653321,-0.112435,0.000000,0.000000,0.000000,-1,1.033717,-0.268514,-1.319624,0.033008,0.026626,-0.082557
"2018-06-07 00:16:20.484 +0000",1528330580.483767,1.408952,-0.724661,0.770350,0.738938,0.662881,-0.120648,0.000000,0.000000,0.000000,-1,0.919259,-0.216622,-1.466574,-0.399415,0.055426,-0.180088
"2018-06-07 00:16:20.494 +0000",1528330580.493840,1.396759,-0.737982,0.756813,0.728650,0.672796,-0.128109,0.000000,0.000000,0.000000,-1,0.711221,-0.401760,-1.434367,-0.404828,0.253077,-0.379841
"2018-06-07 00:16:20.504 +0000",1528330580.503914,1.384072,-0.748168,0.746603,0.720195,0.680297,-0.136063,0.000000,0.000000,0.000000,-1,0.491737,-0.591887,-1.005235,-0.213893,0.280854,-0.510757
"2018-06-07 00:16:20.514 +0000",1528330580.513987,1.377562,-0.753135,0.743020,0.715968,0.683930,-0.140098,0.000000,0.000000,0.000000,-1,0.027586,-0.301635,-0.369773,0.084492,0.270798,-0.285470
"2018-06-07 00:16:20.524 +0000",1528330580.524060,1.383375,-0.753658,0.747720,0.716419,0.684311,-0.135867,0.000000,0.000000,0.000000,-1,-0.442073,0.429469,0.107789,0.227352,0.232040,0.084491
"2018-06-07 00:16:20.534 +0000",1528330580.534134,1.393464,-0.752668,0.754527,0.718420,0.683588,-0.128751,0.000000,0.000000,0.000000,-1,-0.433322,0.522469,0.187637,0.078424,0.290029,-0.088488
"2018-06-07 00:16:20.544 +0000",1528330580.544207,1.400693,-0.751184,0.757995,0.720331,0.682505,-0.123726,0.000000,0.000000,0.000000,-1,-0.146498,0.502443,0.179392,0.028799,0.304388,-0.301719
"2018-06-07 00:16:20.554 +0000",1528330580.554281,1.406466,-0.749937,0.758226,0.721873,0.681593,-0.119705,0.000000,0.000000,0.000000,-1,0.034652,0.569116,0.107103,0.104620,0.205813,-0.110276
"2018-06-07 00:16:20.564 +0000",1528330580.564354,1.408112,-0.749490,0.757252,0.722369,0.681265,-0.118566,0.000000,0.000000,0.000000,-1,0.097840,0.013098,0.017138,0.093839,0.158472,-0.055140
"2018-06-07 00:16:20.574 +0000",1528330580.574428,1.396430,-0.750296,0.752744,0.720394,0.681856,-0.126901,0.000000,0.000000,0.000000,-1,0.391645,-1.169631,-0.209634,0.035603,-0.012956,-0.185660
"2018-06-07 00:16:20.585 +0000",1528330580.584501,1.371465,-0.753780,0.743261,0.714669,0.684399,-0.144373,0.000000,0.000000,0.000000,-1,0.652224,-1.940365,-0.537317,-0.037392,-0.148022,-0.145650
"2018-06-07 00:16:20.595 +0000",1528330580.594574,1.352011,-0.759139,0.735977,0.708134,0.688297,-0.157450,0.000000,0.000000,0.000000,-1,0.258412,-1.161605,-0.641714,-0.046178,-0.127995,0.185877
"2018-06-07 00:16:20.605 +0000",1528330580.604648,1.351066,-0.765210,0.739146,0.703894,0.692688,-0.157205,0.000000,0.000000,0.000000,-1,-0.562950,-0.101843,-0.499068,0.169442,-0.060547,0.348001
"2018-06-07 00:16:20.615 +0000",1528330580.614721,1.359172,-0.770415,0.752894,0.701611,0.696433,-0.150735,0.000000,0.000000,0.000000,-1,-1.213050,-0.203616,-0.220359,0.225300,-0.086997,-0.063636
"2018-06-07 00:16:20.625 +0000",1528330580.624795,1.371291,-0.775964,0.773006,0.699587,0.700405,-0.141453,0.000000,0.000000,0.000000,-1,-1.583161,-0.197697,-0.306621,0.062025,-0.058208,-0.164303
"2018-06-07 00:16:20.635 +0000",1528330580.634868,1.380850,-0.784945,0.793756,0.694702,0.706786,-0.133566,0.000000,0.000000,0.000000,-1,-1.603027,-0.627631,-0.675697,-0.156158,0.131333,-0.239923
"2018-06-07 00:16:20.645 +0000",1528330580.644941,1.385306,-0.795072,0.814989,0.688220,0.713914,-0.129143,0.000000,0.000000,0.000000,-1,-1.672756,-1.189823,-0.690081,-0.047824,-0.010102,-0.353188
"2018-06-07 00:16:20.655 +0000",1528330580.655015,1.387619,-0.804345,0.839988,0.681978,0.720376,-0.126339,0.000000,0.000000,0.000000,-1,-1.952679,-1.648901,-0.563849,0.081007,-0.267724,-0.240299
"2018-06-07 00:16:20.665 +0000",1528330580.665088,1.392245,-0.814438,0.871596,0.675366,0.727340,-0.121885,0.000000,0.000000,0.000000,-1,-2.442539,-1.856398,-0.622491,-0.008709,-0.222549,-0.109301
"2018-06-07 00:16:20.675 +0000",1528330580.675162,1.402460,-0.826911,0.912226,0.667579,0.735843,-0.113451,0.000000,0.000000,0.000000,-1,-3.093466,-1.954136,-0.783707,-0.026969,-0.142277,-0.040250
"2018-06-07 00:16:20.685 +0000",1528330580.685236,1.422396,-0.841240,0.962626,0.659212,0.745470,-0.098552,0.000000,0.000000,0.000000,-1,-3.671727,-1.593033,-0.889973,-0.019533,-0.101946,0.019831
"2018-06-07 00:16:20.695 +0000",1528330580.695309,1.456710,-0.854438,1.018886,0.652372,0.754202,-0.074751,0.000000,0.000000,0.000000,-1,-3.839872,-0.418376,-0.749564,-0.019758,-0.110632,0.108687
"2018-06-07 00:16:20.705 +0000",1528330580.705382,1.507124,-0.860701,1.072319,0.650583,0.758300,-0.041480,0.000000,0.000000,0.000000,-1,-3.355857,1.436720,-0.133234,0.107199,-0.324569,0.160956
"2018-06-07 00:16:20.715 +0000",1528330580.715455,1.561776,-0.858733,1.115820,0.653368,0.757016,-0.005894,0.000000,0.000000,0.000000,-1,-2.635095,2.281707,0.416153,0.146589,-0.381176,-0.115200
"2018-06-07 00:16:20.726 +0000",1528330580.725529,1.608333,-0.852220,1.150506,0.657848,0.752744,0.024705,0.000000,0.000000,0.000000,-1,-2.178566,1.826392,0.656879,-0.037792,-0.109967,-0.298020
"2018-06-07 00:16:20.736 +0000",1528330580.735602,1.641778,-0.844422,1.181795,0.662489,0.747587,0.047104,0.000000,0.000000,0.000000,-1,-2.091290,0.721234,0.643783,-0.173277,0.198046,-0.262604
"2018-06-07 00:16:20.746 +0000",1528330580.745676,1.668825,-0.837185,1.213019,0.666341,0.742761,0.065531,0.000000,0.000000,0.000000,-1,-2.121361,0.351796,0.501868,-0.155308,0.397772,0.006689
"2018-06-07 00:16:20.756 +0000",1528330580.755749,1.696590,-0.831027,1.242237,0.668790,0.738624,0.084576,0.000000,0.000000,0.000000,-1,-1.942040,0.717360,0.357308,-0.034314,0.342980,0.175724
"2018-06-07 00:16:20.766 +0000",1528330580.765822,1.724316,-0.825703,1.265759,0.670064,0.735025,0.103684,0.000000,0.000000,0.000000,-1,-1.518606,1.133790,0.286558,0.063441,0.142356,0.065139
"2018-06-07 00:16:20.776 +0000",1528330580.775896,1.749549,-0.822365,1.281414,0.669646,0.732757,0.120992,0.000000,0.000000,0.000000,-1,-0.946986,1.416160,0.083849,0.089433,0.013398,-0.012395
"2018-06-07 00:16:20.786 +0000",1528330580.785969,1.769143,-0.823846,1.289592,0.666082,0.733764,0.133876,0.000000,0.000000,0.000000,-1,-0.381546,1.282355,-0.356699,0.117503,-0.002090,-0.043070
"2018-06-07 00:16:20.796 +0000",1528330580.796043,1.779533,-0.829343,1.292266,0.660698,0.737488,0.139950,0.000000,0.000000,0.000000,-1,0.026429,0.657727,-0.611151,0.167213,-0.063279,-0.079495
"2018-06-07 00:16:20.806 +0000",1528330580.806116,1.780476,-0.835331,1.289848,0.656235,0.741518,0.139652,0.000000,0.000000,0.000000,-1,0.360115,0.177407,-0.510050,0.097366,-0.197863,-0.118274
"2018-06-07 00:16:20.816 +0000",1528330580.816190,1.775493,-0.839992,1.282929,0.653532,0.744638,0.135676,0.000000,0.000000,0.000000,-1,0.596130,-0.024773,-0.307882,-0.003873,-0.261194,-0.051921
"2018-06-07 00:16:20.826 +0000",1528330580.826263,1.766985,-0.843225,1.273030,0.652298,0.746792,0.129641,0.000000,0.000000,0.000000,-1,0.736796,-0.127144,-0.148231,0.007096,-0.191952,-0.008944
"2018-06-07 00:16:20.836 +0000",1528330580.836336,1.756198,-0.845203,1.260715,0.652205,0.748106,0.122325,0.000000,0.000000,0.000000,-1,0.868028,-0.163630,0.000877,0.070787,-0.145582,-0.003947
"2018-06-07 00:16:20.846 +0000",1528330580.846410,1.744049,-0.845956,1.246043,0.653087,0.748606,0.114295,0.000000,0.000000,0.000000,-1,0.997237,-0.093540,0.126636,0.054478,-0.124353,0.005868
"2018-06-07 00:16:20.856 +0000",1528330580.856483,1.731011,-0.846145,1.229516,0.654382,0.748731,0.105748,0.000000,0.000000,0.000000,-1,1.098829,-0.064859,0.160907,0.034125,-0.098248,0.021068
"2018-06-07 00:16:20.867 +0000",1528330580.866557,1.717221,-0.847854,1.212400,0.654511,0.749862,0.096527,0.000000,0.000000,0.000000,-1,1.144845,-0.117512,-0.080296,0.083709,-0.098251,0.001526
"2018-06-07 00:16:20.877 +0000",1528330580.876630,1.702765,-0.854188,1.196186,0.651117,0.754038,0.086430,0.000000,0.000000,0.000000,-1,1.137517,-0.266798,-0.612082,0.137412,-0.043619,-0.016376
"2018-06-07 00:16:20.887 +0000",1528330580.886703,1.685777,-0.865050,1.180236,0.644317,0.761127,0.074412,0.000000,0.000000,0.000000,-1,1.167302,-0.588801,-1.031513,0.187425,0.002438,-0.075359
"2018-06-07 00:16:20.897 +0000",1528330580.896777,1.663099,-0.878184,1.164300,0.635829,0.769580,0.058856,0.000000,0.000000,0.000000,-1,1.131615,-1.205007,-1.232218,0.205617,-0.003208,-0.176913
"2018-06-07 00:16:20.907 +0000",1528330580.906850,1.642348,-0.889282,1.152371,0.628355,0.776620,0.045036,0.000000,0.000000,0.000000,-1,0.637504,-0.828322,-0.809414,0.108523,-0.005334,-0.161202
"2018-06-07 00:16:20.917 +0000",1528330580.916924,1.646401,-0.886407,1.155798,0.630392,0.774805,0.047751,0.000000,0.000000,0.000000,-1,-0.480002,0.263928,0.553787,-0.078145,0.051870,0.082315
"2018-06-07 00:16:20.927 +0000",1528330580.926997,1.651182,-0.878718,1.163417,0.636075,0.769922,0.051242,0.000000,0.000000,0.000000,-1,-0.469188,-0.259255,0.714663,-0.212568,-0.072473,-0.241015
"2018-06-07 00:16:20.937 +0000",1528330580.937071,1.649106,-0.872803,1.165245,0.640710,0.766134,0.050276,0.000000,0.000000,0.000000,-1,-0.067490,-0.312225,0.523199,-0.417321,-0.018285,-0.334776
"2018-06-07 00:16:20.947 +0000",1528330580.947145,1.646547,-0.868686,1.163101,0.643976,0.763481,0.048875,0.000000,0.000000,0.000000,-1,0.143281,-0.020196,0.395564,-0.220804,0.049827,-0.022966
"2018-06-07 00:16:20.957 +0000",1528330580.957217,1.644907,-0.865482,1.159398,0.646492,0.761408,0.048000,0.000000,0.000000,0.000000,-1,0.232002,0.153858,0.309816,0.038109,0.036413,0.098515
"2018-06-07 00:16:20.967 +0000",1528330580.967291,1.644208,-0.863159,1.155215,0.648287,0.759900,0.047678,0.000000,0.000000,0.000000,-1,0.251362,0.282665,0.234851,0.150205,0.071384,0.040808
"2018-06-07 00:16:20.977 +0000",1528330580.977364,1.646107,-0.860926,1.151316,0.649886,0.758446,0.049036,0.000000,0.000000,0.000000,-1,0.228954,0.550406,0.247513,0.203721,0.020439,-0.008188
"2018-06-07 00:16:20.987 +0000",1528330580.987438,1.649162,-0.858328,1.148150,0.651696,0.756750,0.051175,0.000000,0.000000,0.000000,-1,0.160513,0.493010,0.276546,0.127144,0.011987,-0.076612
"2018-06-07 00:16:20.998 +0000",1528330580.997511,1.650045,-0.855464,1.145933,0.653808,0.754875,0.051922,0.000000,0.000000,0.000000,-1,0.119598,0.178797,0.309070,0.008653,-0.004341,-0.207608
"2018-06-07 00:16:21.008 +0000",1528330581.007584,1.648616,-0.852287,1.143591,0.656268,0.752788,0.051174,0.000000,0.000000,0.000000,-1,0.126006,-0.006746,0.318197,-0.069812,-0.079463,-0.204525
"2018-06-07 00:16:21.018 +0000",1528330581.017658,1.646262,-0.850280,1.141885,0.657892,0.751465,0.049743,0.000000,0.000000,0.000000,-1,0.082187,-0.125853,0.157679,-0.134226,-0.114914,-0.116546
"2018-06-07 00:16:21.028 +0000",1528330581.027731,1.645315,-0.850405,1.141820,0.657846,0.751548,0.049113,0.000000,0.000000,0.000000,-1,-0.026419,-0.061536,-0.068846,-0.143487,-0.115836,-0.023661
"2018-06-07 00:16:21.038 +0000",1528330581.037805,1.647150,-0.852376,1.143491,0.656276,0.752846,0.050207,0.000000,0.000000,0.000000,-1,-0.103021,0.108008,-0.235978,-0.060665,-0.110146,0.036585
"2018-06-07 00:16:21.048 +0000",1528330581.047878,1.651301,-0.855119,1.144771,0.654002,0.754649,0.052764,0.000000,0.000000,0.000000,-1,-0.036746,0.393817,-0.284778,0.060873,-0.077845,0.041337
"2018-06-07 00:16:21.058 +0000",1528330581.057952,1.656988,-0.858194,1.143697,0.651376,0.756663,0.056282,0.000000,0.000000,0.000000,-1,0.150027,0.724835,-0.301453,0.123939,0.027700,0.042045
"2018-06-07 00:16:21.068 +0000",1528330581.068025,1.662763,-0.861321,1.139168,0.648681,0.758704,0.059826,0.000000,0.000000,0.000000,-1,0.365972,0.961348,-0.275444,0.139787,0.085321,0.028385
"2018-06-07 00:16:21.078 +0000",1528330581.078098,1.667538,-0.864249,1.132938,0.646174,0.760608,0.062708,0.000000,0.000000,0.000000,-1,0.443480,0.914216,-0.241338,0.059515,0.093716,-0.026407
"2018-06-07 00:16:21.088 +0000",1528330581.088172,1.669598,-0.866843,1.125800,0.644078,0.762289,0.063844,0.000000,0.000000,0.000000,-1,0.494851,0.672672,-0.199132,-0.011708,0.082315,-0.134919
"2018-06-07 00:16:21.098 +0000",1528330581.098245,1.668270,-0.869399,1.118723,0.642221,0.763941,0.062799,0.000000,0.000000,0.000000,-1,0.458604,0.312597,-0.221610,-0.043924,0.059972,-0.196343
"2018-06-07 00:16:21.108 +0000",1528330581.108319,1.664887,-0.872691,1.113284,0.639922,0.766061,0.060389,0.000000,0.000000,0.000000,-1,0.351412,0.010797,-0.313672,-0.055495,0.103949,-0.190852
"2018-06-07 00:16:21.118 +0000",1528330581.118392,1.661101,-0.876658,1.110118,0.637115,0.768605,0.057691,0.000000,0.000000,0.000000,-1,0.193608,-0.182515,-0.393471,-0.034255,0.109736,-0.112226
"2018-06-07 00:16:21.128 +0000",1528330581.128465,1.649161,-0.822154,1.103931,0.678554,0.732613,0.053284,0.000000,0.000000,0.000000,-1,-0.017547,-0.421987,-0.495870,-0.065791,0.092094,-0.081802
"2018-06-07 00:16:21.139 +0000",1528330581.138539,1.655523,-0.815204,1.113960,0.683257,0.727866,0.058029,0.000000,0.000000,0.000000,-1,-0.203043,-0.578242,-0.530321,-0.070129,0.039163,-0.093139
"2018-06-07 00:16:21.149 +0000",1528330581.148612,1.658786,-0.820801,1.123833,0.678996,0.731692,0.059899,0.000000,0.000000,0.000000,-1,-0.352997,-0.696048,-0.547530,-0.068126,-0.043109,-0.087762
"2018-06-07 00:16:21.159 +0000",1528330581.158686,1.653634,-0.835036,1.127982,0.668847,0.741321,0.055533,0.000000,0.000000,0.000000,-1,-0.381084,-0.661404,-0.450557,-0.057518,-0.153171,-0.077155
"2018-06-07 00:16:21.169 +0000",1528330581.168759,1.651976,-0.838483,1.132146,0.666387,0.743630,0.054217,0.000000,0.000000,0.000000,-1,-0.185750,-0.389061,-0.343723,-0.043478,-0.145943,-0.025362
"2018-06-07 00:16:21.179 +0000",1528330581.178833,1.620754,-0.854828,1.109035,0.655527,0.754458,0.032776,0.000000,0.000000,0.000000,-1,0.089419,0.080111,-0.262315,0.012259,-0.044604,0.092712
"2018-06-07 00:16:21.189 +0000",1528330581.188906,1.595964,-0.873032,1.086175,0.642301,0.766280,0.016169,0.000000,0.000000,0.000000,-1,0.250622,0.409762,-0.231607,0.038974,-0.005157,0.153921
"2018-06-07 00:16:21.199 +0000",1528330581.198979,1.587128,-0.887414,1.074301,0.631333,0.775442,0.010312,0.000000,0.000000,0.000000,-1,0.224574,0.455935,-0.264758,0.012817,0.057566,0.087466
"2018-06-07 00:16:21.209 +0000",1528330581.209053,1.582584,-0.894951,1.067134,0.625511,0.780178,0.007374,0.000000,0.000000,0.000000,-1,0.124831,0.286535,-0.248888,-0.072929,0.031223,-0.001331
"2018-06-07 00:16:21.219 +0000",1528330581.219126,1.575140,-0.897977,1.060463,0.623184,0.782068,0.002707,0.000000,0.000000,0.000000,-1,0.105859,-0.055663,-0.334816,-0.151214,0.009985,-0.129584
"2018-06-07 00:16:21.229 +0000",1528330581.229201,1.566826,-0.896626,1.054060,0.624241,0.781225,-0.002478,0.000000,0.000000,0.000000,-1,0.193402,-0.149677,-0.370786,-0.098820,0.035212,-0.118432
"2018-06-07 00:16:21.239 +0000",1528330581.239274,1.560725,-0.888446,1.048768,0.630583,0.776093,-0.006351,0.000000,0.000000,0.000000,-1,0.149671,-0.050214,-0.296177,-0.045211,-0.018570,0.027515
"2018-06-07 00:16:21.249 +0000",1528330581.249348,1.563415,-0.882229,1.051952,0.635411,0.772157,-0.004690,0.000000,0.000000,0.000000,-1,-0.046899,-0.198550,-0.394042,-0.039174,-0.020570,0.014959
"2018-06-07 00:16:21.259 +0000",1528330581.259421,1.578610,-0.880860,1.067218,0.636466,0.771286,0.004973,0.000000,0.000000,0.000000,-1,-0.238281,-0.315626,-0.350919,0.048608,-0.009781,-0.060439
"2018-06-07 00:16:21.269 +0000",1528330581.269494,1.594961,-0.880140,1.084143,0.636854,0.770828,0.015392,0.000000,0.000000,0.000000,-1,-0.315768,-0.278416,-0.112916,0.086428,-0.146408,-0.048245
"2018-06-07 00:16:21.280 +0000",1528330581.279568,1.602521,-0.881330,1.092586,0.635802,0.771585,0.020178,0.000000,0.000000,0.000000,-1,-0.220887,-0.064931,0.088634,0.037034,-0.215113,-0.015600
"2018-06-07 00:16:21.290 +0000",1528330581.289641,1.605008,-0.881987,1.094163,0.635243,0.772004,0.021741,0.000000,0.000000,0.000000,-1,-0.107616,0.203241,0.350536,0.035381,-0.252564,0.048663
"2018-06-07 00:16:21.300 +0000",1528330581.299715,1.607330,-0.877335,1.093860,0.638774,0.769038,0.023347,0.000000,0.000000,0.000000,-1,0.054171,0.248169,0.477223,-0.019099,-0.346232,0.006804
"2018-06-07 00:16:21.310 +0000",1528330581.309788,1.605338,-0.872852,1.089410,0.642258,0.766165,0.022193,0.000000,0.000000,0.000000,-1,0.347643,0.093254,0.440604,-0.075669,-0.276220,-0.092155
"2018-06-07 00:16:21.320 +0000",1528330581.319861,1.595129,-0.869744,1.078997,0.644829,0.764164,0.015694,0.000000,0.000000,0.000000,-1,0.766336,-0.368147,0.274804,-0.082207,-0.205219,-0.145988
"2018-06-07 00:16:21.330 +0000",1528330581.329935,1.570008,-0.869880,1.061655,0.644915,0.764251,-0.000509,0.000000,0.000000,0.000000,-1,1.223081,-1.486072,-0.114574,-0.048678,-0.094391,-0.234492
"2018-06-07 00:16:21.340 +0000",1528330581.340008,1.531310,-0.873817,1.038964,0.641401,0.766785,-0.025340,0.000000,0.000000,0.000000,-1,1.500085,-2.275066,-0.527325,0.057299,0.094269,-0.255513
"2018-06-07 00:16:21.350 +0000",1528330581.350082,1.477235,-0.882667,1.007118,0.632313,0.772435,-0.059333,0.000000,0.000000,0.000000,-1,2.166521,-3.157520,-1.170351,0.138515,0.165355,-0.237267
"2018-06-07 00:16:21.360 +0000",1528330581.360155,1.417130,-0.892005,0.965214,0.620452,0.778332,-0.096100,0.000000,0.000000,0.000000,-1,2.508718,-2.448255,-1.230383,0.211793,0.415866,-0.146545
"2018-06-07 00:16:21.370 +0000",1528330581.370229,1.374206,-0.899702,0.927791,0.609863,0.783142,-0.121462,0.000000,0.000000,0.000000,-1,1.967619,-0.979228,-1.115155,0.175522,0.411805,0.181536
"2018-06-07 00:16:21.380 +0000",1528330581.380302,1.351734,-0.906926,0.902572,0.601442,0.787613,-0.133902,0.000000,0.000000,0.000000,-1,1.192829,-0.108056,-0.995752,0.073210,0.263580,0.243857
"2018-06-07 00:16:21.390 +0000",1528330581.390375,1.340516,-0.913373,0.887147,0.594946,0.791570,-0.139478,0.000000,0.000000,0.000000,-1,0.649930,0.139777,-0.768978,0.005946,0.197719,0.136167
"2018-06-07 00:16:21.400 +0000",1528330581.400449,1.335100,-0.918058,0.878882,0.590569,0.794424,-0.141831,0.000000,0.000000,0.000000,-1,0.305633,0.070791,-0.514538,-0.141046,0.074183,0.071992
"2018-06-07 00:16:21.411 +0000",1528330581.410522,1.330506,-0.921795,0.874638,0.587024,0.796687,-0.143836,0.000000,0.000000,0.000000,-1,0.124338,-0.178286,-0.400829,-0.318820,0.077305,-0.042795
"2018-06-07 00:16:21.421 +0000",1528330581.420596,1.325627,-0.925182,0.872477,0.583694,0.798730,-0.146042,0.000000,0.000000,0.000000,-1,0.017956,-0.350085,-0.340849,-0.311264,0.089591,-0.068542
"2018-06-07 00:16:21.431 +0000",1528330581.430669,1.321073,-0.928419,0.871942,0.580515,0.800674,-0.148059,0.000000,0.000000,0.000000,-1,-0.061990,-0.414078,-0.317189,-0.220514,0.066514,-0.068738
"2018-06-07 00:16:21.441 +0000",1528330581.440743,1.316963,-0.931464,0.871640,0.577539,0.802494,-0.149830,0.000000,0.000000,0.000000,-1,-0.050689,-0.374644,-0.289134,-0.113214,0.081173,-0.067287
"2018-06-07 00:16:21.451 +0000",1528330581.450816,1.312728,-0.934417,0.870879,0.574605,0.804253,-0.151670,0.000000,0.000000,0.000000,-1,-0.026433,-0.356949,-0.304197,-0.021916,0.009086,-0.087268
"2018-06-07 00:16:21.461 +0000",1528330581.460889,1.308440,-0.937994,0.870183,0.571167,0.806374,-0.153385,0.000000,0.000000,0.000000,-1,-0.072074,-0.378730,-0.376224,0.054641,-0.036720,-0.099743
"2018-06-07 00:16:21.471 +0000",1528330581.470963,1.305682,-0.942773,0.870347,0.567017,0.809190,-0.153948,0.000000,0.000000,0.000000,-1,-0.145977,-0.228097,-0.482105,0.107391,-0.013826,-0.059034
"2018-06-07 00:16:21.481 +0000",1528330581.481036,1.306837,-0.948024,0.871926,0.563084,0.812265,-0.152183,0.000000,0.000000,0.000000,-1,-0.262834,0.047114,-0.481037,0.092494,0.049949,0.038215
"2018-06-07 00:16:21.491 +0000",1528330581.491110,1.309707,-0.953806,0.874353,0.558972,0.815624,-0.149351,0.000000,0.000000,0.000000,-1,-0.272986,0.085719,-0.531457,0.011066,0.082066,0.018690
"2018-06-07 00:16:21.501 +0000",1528330581.501183,1.310244,-0.959688,0.874720,0.554407,0.819013,-0.147812,0.000000,0.000000,0.000000,-1,-0.137121,0.002826,-0.569657,-0.041239,0.133395,-0.051956
"2018-06-07 00:16:21.511 +0000",1528330581.511256,1.309332,-0.966698,0.874486,0.548713,0.823014,-0.146830,0.000000,0.000000,0.000000,-1,-0.204147,-0.091138,-0.720367,-0.041404,0.120848,-0.110448
"2018-06-07 00:16:21.521 +0000",1528330581.521330,1.311200,-0.975643,0.877277,0.541848,0.828063,-0.143909,0.000000,0.000000,0.000000,-1,-0.442844,-0.021083,-0.830408,0.065940,0.055971,-0.089703
"2018-06-07 00:16:21.531 +0000",1528330581.531403,1.316505,-0.984164,0.882976,0.535756,0.832810,-0.139253,0.000000,0.000000,0.000000,-1,-0.508025,0.049522,-0.694522,0.124461,-0.012924,-0.066619
"2018-06-07 00:16:21.541 +0000",1528330581.541477,1.319862,-0.991392,0.886862,0.530375,0.836789,-0.135955,0.000000,0.000000,0.000000,-1,-0.334086,0.022320,-0.636914,-0.026072,-0.076215,-0.141099
"2018-06-07 00:16:21.552 +0000",1528330581.551550,1.321498,-0.998190,0.887876,0.525072,0.840492,-0.133681,0.000000,0.000000,0.000000,-1,-0.191266,0.094095,-0.642411,-0.114077,-0.075019,-0.045122
"2018-06-07 00:16:21.562 +0000",1528330581.561624,1.322560,-1.005449,0.888166,0.519286,0.844403,-0.131620,0.000000,0.000000,0.000000,-1,-0.215844,0.065814,-0.720959,-0.043669,0.009281,-0.000765
"2018-06-07 00:16:21.572 +0000",1528330581.571697,1.324550,-1.014034,0.890830,0.512497,0.848970,-0.128815,0.000000,0.000000,0.000000,-1,-0.379938,-0.072592,-0.809189,0.032791,0.073561,-0.075821
"2018-06-07 00:16:21.582 +0000",1528330581.581770,1.319251,-1.025052,0.889202,0.502717,0.854741,-0.129193,0.000000,0.000000,0.000000,-1,-0.418204,-0.271172,-0.862385,0.009399,0.067759,-0.132313
"2018-06-07 00:16:21.592 +0000",1528330581.591844,1.308403,-1.035587,0.885077,0.492562,0.860162,-0.132295,0.000000,0.000000,0.000000,-1,-0.495003,-0.545466,-0.949059,-0.059715,0.053870,-0.088454
"2018-06-07 00:16:21.602 +0000",1528330581.601917,1.300287,-1.041445,0.885384,0.486608,0.863135,-0.134940,0.000000,0.000000,0.000000,-1,-0.546073,-0.699159,-0.981659,-0.029180,-0.032675,-0.029474
"2018-06-07 00:16:21.612 +0000",1528330581.611991,1.293303,-1.043331,0.886637,0.484087,0.864086,-0.137889,0.000000,0.000000,0.000000,-1,-0.376234,-0.763660,-0.932755,-0.030245,-0.152721,0.008143
"2018-06-07 00:16:21.622 +0000",1528330581.622064,1.275730,-1.048890,0.877853,0.476987,0.866870,-0.144974,0.000000,0.000000,0.000000,-1,-0.272971,-0.718161,-0.981264,-0.042844,-0.158099,0.022065
"2018-06-07 00:16:21.632 +0000",1528330581.632137,1.265059,-1.058703,0.874050,0.467277,0.871721,-0.147489,0.000000,0.000000,0.000000,-1,-0.293204,-0.620617,-0.957269,0.033867,-0.133668,0.056058
"2018-06-07 00:16:21.642 +0000",1528330581.642211,1.262411,-1.067753,0.876306,0.459349,0.876119,-0.146325,0.000000,0.000000,0.000000,-1,-0.355021,-0.437855,-0.863015,0.057924,-0.098653,0.076210
"2018-06-07 00:16:21.652 +0000",1528330581.652284,1.258823,-1.074245,0.876132,0.453398,0.879231,-0.146223,0.000000,0.000000,0.000000,-1,-0.276287,-0.298743,-0.738016,0.014666,-0.080006,0.085234
"2018-06-07 00:16:21.662 +0000",1528330581.662358,1.249264,-1.080638,0.871042,0.446637,0.882258,-0.148771,0.000000,0.000000,0.000000,-1,-0.188450,-0.457398,-0.804293,-0.076871,-0.037776,0.005292
"2018-06-07 00:16:21.672 +0000",1528330581.672431,1.240539,-1.090246,0.868829,0.437283,0.886741,-0.149906,0.000000,0.000000,0.000000,-1,-0.394482,-0.605765,-0.901061,-0.076428,0.086206,0.007053
"2018-06-07 00:16:21.683 +0000",1528330581.682505,1.236874,-1.098287,0.872330,0.429981,0.890429,-0.149166,0.000000,0.000000,0.000000,-1,-0.472173,-0.717467,-0.754920,0.034070,-0.027895,0.026073
"2018-06-07 00:16:21.693 +0000",1528330581.692578,1.231833,-1.102661,0.875652,0.425546,0.892411,-0.150035,0.000000,0.000000,0.000000,-1,-0.253797,-0.880038,-0.585941,-0.091500,-0.228410,-0.112904
"2018-06-07 00:16:21.703 +0000",1528330581.702651,1.221928,-1.108945,0.875432,0.418760,0.895229,-0.152323,0.000000,0.000000,0.000000,-1,-0.194886,-0.939135,-0.590550,-0.262999,-0.173992,-0.119650
"2018-06-07 00:16:21.713 +0000",1528330581.712725,1.213836,-1.114969,0.875191,0.412453,0.897897,-0.153819,0.000000,0.000000,0.000000,-1,-0.202770,-0.731861,-0.546904,-0.145867,-0.072183,0.012034
"2018-06-07 00:16:21.723 +0000",1528330581.722798,1.208534,-1.120206,0.876021,0.407229,0.900190,-0.154335,0.000000,0.000000,0.000000,-1,-0.315841,-0.521668,-0.483646,-0.055804,0.029253,0.056907
"2018-06-07 00:16:21.733 +0000",1528330581.732872,1.208636,-1.126212,0.882226,0.402182,0.902789,-0.152375,0.000000,0.000000,0.000000,-1,-0.518768,-0.588248,-0.447879,-0.074408,0.176541,0.034410
"2018-06-07 00:16:21.743 +0000",1528330581.742945,1.210841,-1.132222,0.892985,0.397432,0.905358,-0.149574,0.000000,0.000000,0.000000,-1,-0.656875,-0.785515,-0.356706,-0.075670,0.145744,-0.065300
"2018-06-07 00:16:21.753 +0000",1528330581.753018,1.210895,-1.137164,0.903465,0.393247,0.907446,-0.147975,0.000000,0.000000,0.000000,-1,-0.538359,-0.980783,-0.310217,-0.129041,0.022059,-0.069326
"2018-06-07 00:16:21.763 +0000",1528330581.763092,1.204792,-1.141186,0.907678,0.388925,0.909128,-0.149065,0.000000,0.000000,0.000000,-1,-0.315671,-0.925238,-0.319171,-0.176538,-0.006037,-0.060744
"2018-06-07 00:16:21.773 +0000",1528330581.773165,1.197240,-1.145841,0.909110,0.383844,0.911057,-0.150452,0.000000,0.000000,0.000000,-1,-0.209548,-0.880415,-0.466647,-0.114863,-0.085709,0.026016
"2018-06-07 00:16:21.783 +0000",1528330581.783239,1.188059,-1.151216,0.908657,0.377898,0.913260,-0.152138,0.000000,0.000000,0.000000,-1,-0.185055,-0.884557,-0.509741,-0.090514,-0.071631,0.010857
"2018-06-07 00:16:21.793 +0000",1528330581.793312,1.176622,-1.155964,0.907333,0.372126,0.915184,-0.154783,0.000000,0.000000,0.000000,-1,-0.096069,-1.059105,-0.450216,-0.037898,-0.236000,-0.023729
"2018-06-07 00:16:21.803 +0000",1528330581.803385,1.160230,-1.161125,0.902807,0.365204,0.917252,-0.158975,0.000000,0.000000,0.000000,-1,-0.136602,-1.248423,-0.619550,-0.143616,-0.259354,-0.014868
"2018-06-07 00:16:21.813 +0000",1528330581.813459,1.144590,-1.169258,0.901764,0.355867,0.920461,-0.161577,0.000000,0.000000,0.000000,-1,-0.341829,-1.520460,-0.805958,-0.142366,-0.233968,0.083055
"2018-06-07 00:16:21.824 +0000",1528330581.823532,1.127580,-1.179763,0.902933,0.344313,0.924516,-0.163451,0.000000,0.000000,0.000000,-1,-0.530404,-1.880402,-0.961466,-0.082625,-0.225496,0.151885
"2018-06-07 00:16:21.834 +0000",1528330581.833606,1.112695,-1.191343,0.908390,0.332218,0.928867,-0.163812,0.000000,0.000000,0.000000,-1,-0.735382,-1.988698,-0.926891,-0.058521,-0.176014,0.261148
"2018-06-07 00:16:21.844 +0000",1528330581.843679,1.102001,-1.202928,0.918668,0.320825,0.933096,-0.162482,0.000000,0.000000,0.000000,-1,-0.980628,-1.996252,-0.858586,0.010428,-0.024740,0.318763
"2018-06-07 00:16:21.854 +0000",1528330581.853753,1.102715,-1.215726,0.941107,0.310258,0.937622,-0.156852,0.000000,0.000000,0.000000,-1,-1.366818,-1.987833,-0.766247,0.059493,0.180084,0.293632
"2018-06-07 00:16:21.864 +0000",1528330581.863826,1.112485,-1.229665,0.972058,0.300024,0.942377,-0.148016,0.000000,0.000000,0.000000,-1,-1.607435,-1.916061,-0.763336,0.050775,0.361197,0.221136
"2018-06-07 00:16:21.874 +0000",1528330581.873899,1.128905,-1.243133,1.010604,0.290914,0.946797,-0.137629,0.000000,0.000000,0.000000,-1,-1.733407,-2.012502,-0.623495,0.056681,0.348689,0.040538
"2018-06-07 00:16:21.884 +0000",1528330581.883973,1.145055,-1.255246,1.048936,0.282633,0.950626,-0.128168,0.000000,0.000000,0.000000,-1,-1.505773,-1.983470,-0.589511,-0.019602,0.154645,-0.190634
"2018-06-07 00:16:21.894 +0000",1528330581.894046,1.149468,-1.265945,1.072099,0.273899,0.953891,-0.122752,0.000000,0.000000,0.000000,-1,-0.921165,-1.643217,-0.712483,-0.093860,0.046887,-0.383199
"2018-06-07 00:16:21.904 +0000",1528330581.904120,1.138738,-1.275013,1.074645,0.264699,0.956574,-0.122056,0.000000,0.000000,0.000000,-1,-0.291826,-1.195438,-0.792220,-0.059499,0.008529,-0.422057
"2018-06-07 00:16:21.914 +0000",1528330581.914193,1.112086,-1.280415,1.054574,0.256715,0.958135,-0.126777,0.000000,0.000000,0.000000,-1,0.510460,-0.553541,-0.712592,0.044341,-0.039464,-0.356301
"2018-06-07 00:16:21.924 +0000",1528330581.924266,1.070635,-1.281244,1.012167,0.250544,0.958372,-0.136925,0.000000,0.000000,0.000000,-1,1.141420,0.031798,-0.610148,0.020727,0.021883,-0.397972
"2018-06-07 00:16:21.934 +0000",1528330581.934340,1.030005,-1.281245,0.968647,0.244774,0.958372,-0.146988,0.000000,0.000000,0.000000,-1,0.989238,0.130289,-0.637480,-0.116570,0.152208,-0.357116
"2018-06-07 00:16:21.944 +0000",1528330581.944413,0.996579,-1.284524,0.934754,0.237085,0.959303,-0.153379,0.000000,0.000000,0.000000,-1,0.524723,-0.192914,-0.836350,-0.160944,0.136949,-0.076022
"2018-06-07 00:16:21.954 +0000",1528330581.954487,0.962316,-1.290993,0.902968,0.226595,0.961110,-0.157860,0.000000,0.000000,0.000000,-1,0.344063,-0.383383,-1.086040,-0.118181,-0.012837,-0.013283
"2018-06-07 00:16:21.965 +0000",1528330581.964560,0.926417,-1.299272,0.868722,0.214414,0.963363,-0.161105,0.000000,0.000000,0.000000,-1,0.225310,-0.252473,-1.230600,0.025927,-0.004089,0.021411
"2018-06-07 00:16:21.975 +0000",1528330581.974633,0.894186,-1.309153,0.837381,0.201679,0.965966,-0.161963,0.000000,0.000000,0.000000,-1,-0.015809,-0.208960,-1.295535,0.144436,-0.024636,0.094259
"2018-06-07 00:16:21.985 +0000",1528330581.984707,0.867074,-1.320245,0.812955,0.189033,0.968776,-0.160427,0.000000,0.000000,0.000000,-1,-0.308376,-0.397903,-1.197531,0.153344,-0.027599,0.156352
"2018-06-07 00:16:21.995 +0000",1528330581.994780,0.852267,-1.332098,0.803130,0.177980,0.971647,-0.155638,0.000000,0.000000,0.000000,-1,-0.675274,-0.564428,-0.997105,0.126189,-0.043699,0.236952
"2018-06-07 00:16:22.005 +0000",1528330582.004854,0.845828,-1.343462,0.804104,0.168696,0.974271,-0.149448,0.000000,0.000000,0.000000,-1,-0.762873,-0.793929,-0.777065,0.014577,-0.062482,0.115085
"2018-06-07 00:16:22.015 +0000",1528330582.014927,0.842760,-1.353768,0.809756,0.160734,0.976542,-0.143276,0.000000,0.000000,0.000000,-1,-0.799402,-0.854885,-0.663141,-0.037214,-0.046747,-0.002491
"2018-06-07 00:16:22.025 +0000",1528330582.025000,0.852445,-1.365222,0.828714,0.153682,0.978944,-0.134342,0.000000,0.000000,0.000000,-1,-1.159267,-0.914453,-0.571060,0.096883,0.008666,0.064411
"2018-06-07 00:16:22.035 +0000",1528330582.035074,0.883428,-1.379633,0.872215,0.146849,0.981784,-0.120551,0.000000,0.000000,0.000000,-1,-1.720059,-1.260843,-0.539590,0.195360,-0.049441,0.093696
"2018-06-07 00:16:22.045 +0000",1528330582.045147,0.940657,-1.397697,0.946947,0.139149,0.985056,-0.101486,0.000000,0.000000,0.000000,-1,-2.297682,-1.745112,-0.624651,0.188716,-0.082498,0.076492
"2018-06-07 00:16:22.055 +0000",1528330582.055221,1.031629,-1.418920,1.060862,0.129820,0.988489,-0.077671,0.000000,0.000000,0.000000,-1,-2.821115,-2.273922,-0.785262,0.131243,-0.092340,0.090717
"2018-06-07 00:16:22.065 +0000",1528330582.065294,1.187004,-1.441594,1.248288,0.119457,0.991665,-0.048239,0.000000,0.000000,0.000000,-1,-3.516021,-3.286625,-0.851155,0.055180,0.006977,0.104940
"2018-06-07 00:16:22.075 +0000",1528330582.075367,1.460107,-1.458607,1.565158,0.111255,0.993713,-0.012365,0.000000,0.000000,0.000000,-1,-4.203676,-4.362017,-0.622521,0.053907,0.111832,0.026693
"2018-06-07 00:16:22.085 +0000",1528330582.085441,1.767160,-1.463376,1.912319,0.105139,0.994236,0.020915,0.000000,0.000000,0.000000,-1,-3.372553,-3.224428,-0.666292,-0.064566,0.274166,-0.230555
"2018-06-07 00:16:22.096 +0000",1528330582.095514,1.965460,-1.462311,2.127866,0.099936,0.994121,0.041625,0.000000,0.000000,0.000000,-1,-1.937640,-1.192341,-0.527060,0.013101,0.094151,-0.512420
"2018-06-07 00:16:22.106 +0000",1528330582.105588,2.098218,-1.460454,2.269176,0.095140,0.993918,0.055415,0.000000,0.000000,0.000000,-1,-1.322659,-0.675791,-0.523739,0.001692,0.145394,-0.534190
"2018-06-07 00:16:22.116 +0000",1528330582.115661,2.191110,-1.459058,2.366587,0.090719,0.993764,0.064808,0.000000,0.000000,0.000000,-1,-0.864814,-0.289629,-0.421478,-0.038473,0.299403,-0.232075
"2018-06-07 00:16:22.126 +0000",1528330582.125735,2.245645,-1.457764,2.422366,0.088055,0.993619,0.070460,0.000000,0.000000,0.000000,-1,-0.483127,-0.043459,-0.232322,0.020541,0.126315,-0.118601
"2018-06-07 00:16:22.136 +0000",1528330582.135808,2.277824,-1.457056,2.455157,0.086278,0.993539,0.073714,0.000000,0.000000,0.000000,-1,-0.294572,-0.047604,-0.166076,-0.107854,0.186500,-0.041899
"2018-06-07 00:16:22.146 +0000",1528330582.145881,2.301484,-1.456623,2.479476,0.084830,0.993489,0.076021,0.000000,0.000000,0.000000,-1,-0.217002,-0.048571,-0.145819,-0.142050,0.225947,-0.013078
"2018-06-07 00:16:22.156 +0000",1528330582.155955,2.322052,-1.456631,2.500129,0.083243,0.993490,0.077744,0.000000,0.000000,0.000000,-1,-0.147605,0.046120,-0.167215,-0.101813,0.161249,-0.056321
"2018-06-07 00:16:22.166 +0000",1528330582.166028,2.333693,-1.458207,2.509937,0.081201,0.993669,0.077627,0.000000,0.000000,0.000000,-1,0.098178,0.233524,-0.190897,-0.052515,0.071273,-0.079656
"2018-06-07 00:16:22.176 +0000",1528330582.176102,2.331135,-1.461933,2.503576,0.078717,0.994080,0.074867,0.000000,0.000000,0.000000,-1,0.374624,0.406845,-0.239430,-0.011334,0.047927,-0.070762
"2018-06-07 00:16:22.186 +0000",1528330582.186175,2.316880,-1.469326,2.485562,0.074376,0.994856,0.068747,0.000000,0.000000,0.000000,-1,0.737866,0.326531,-0.480365,-0.060613,0.135759,-0.071356
"2018-06-07 00:16:22.196 +0000",1528330582.196248,2.286908,-1.481261,2.453116,0.067438,0.995994,0.058685,0.000000,0.000000,0.000000,-1,1.104379,0.206752,-0.732178,-0.144052,0.231545,-0.125229
"2018-06-07 00:16:22.206 +0000",1528330582.206322,2.230795,-1.495690,2.394257,0.059261,0.997181,0.045992,0.000000,0.000000,0.000000,-1,1.320235,0.286726,-0.812037,-0.166347,0.256756,-0.168490
"2018-06-07 00:16:22.216 +0000",1528330582.216395,2.141661,-1.510282,2.301494,0.050864,0.998170,0.032664,0.000000,0.000000,0.000000,-1,1.350718,0.340641,-0.821631,-0.086874,0.282012,-0.125712
"2018-06-07 00:16:22.226 +0000",1528330582.226468,1.981714,-1.524038,2.138174,0.042819,0.998907,0.018657,0.000000,0.000000,0.000000,-1,1.438595,0.295662,-0.770332,0.000440,0.253077,-0.153591
"2018-06-07 00:16:22.237 +0000",1528330582.236541,1.656978,-1.533970,1.809944,0.036638,0.999322,0.003165,0.000000,0.000000,0.000000,-1,1.588065,0.359910,-0.546753,0.063124,0.077842,-0.179755
"2018-06-07 00:16:22.247 +0000",1528330582.246614,1.189329,-1.534367,1.334956,0.033761,0.999337,-0.013542,0.000000,0.000000,0.000000,-1,1.706739,0.839586,-0.193894,0.107810,-0.021248,-0.083458
"2018-06-07 00:16:22.257 +0000",1528330582.256688,0.862513,-1.524148,0.994313,0.035387,0.998912,-0.030311,0.000000,0.000000,0.000000,-1,1.699575,1.519445,0.244812,0.148878,-0.076122,0.012245
"2018-06-07 00:16:22.267 +0000",1528330582.266761,0.745279,-1.508470,0.856439,0.042223,0.998058,-0.045754,0.000000,0.000000,0.000000,-1,1.580793,2.198839,0.720344,0.156080,-0.162411,0.044488
"2018-06-07 00:16:22.277 +0000",1528330582.276835,0.736727,-1.490149,0.821161,0.054113,0.996750,-0.059655,0.000000,0.000000,0.000000,-1,1.490835,2.781914,1.147127,0.128748,-0.179367,0.023080
"2018-06-07 00:16:22.287 +0000",1528330582.286908,0.774001,-1.470150,0.827447,0.070223,0.994939,-0.071842,0.000000,0.000000,0.000000,-1,1.376552,3.153423,1.485146,0.094587,-0.181509,-0.036892
"2018-06-07 00:16:22.297 +0000",1528330582.296982,0.833641,-1.448630,0.853889,0.090216,0.992547,-0.081906,0.000000,0.000000,0.000000,-1,1.236162,3.367880,1.822768,0.029214,-0.145959,-0.076190
"2018-06-07 00:16:22.307 +0000",1528330582.307055,0.902759,-1.426586,0.886562,0.112811,0.989620,-0.089015,0.000000,0.000000,0.000000,-1,1.031908,3.767366,1.973913,-0.026095,-0.185894,0.011317
"2018-06-07 00:16:22.317 +0000",1528330582.317128,0.988171,-1.406114,0.937005,0.136885,0.986470,-0.090197,0.000000,0.000000,0.000000,-1,0.368644,3.319322,2.094600,-0.074278,-0.257100,0.043933
"2018-06-07 00:16:22.327 +0000",1528330582.327202,1.069227,-1.392934,0.993739,0.155128,0.984224,-0.085063,0.000000,0.000000,0.000000,-1,-0.278669,2.211470,1.450700,-0.198738,-0.168306,-0.111714
"2018-06-07 00:16:22.337 +0000",1528330582.337275,1.131667,-1.386486,1.043333,0.165873,0.983063,-0.077914,0.000000,0.000000,0.000000,-1,-0.546853,1.076093,0.815532,-0.203441,-0.190735,-0.092237
"2018-06-07 00:16:22.347 +0000",1528330582.347349,1.174748,-1.385616,1.083543,0.169863,0.982903,-0.071027,0.000000,0.000000,0.000000,-1,-0.665471,0.152767,0.236572,-0.102206,-0.112176,-0.128237
"2018-06-07 00:16:22.357 +0000",1528330582.357422,1.208516,-1.389183,1.119122,0.168885,0.983554,-0.064009,0.000000,0.000000,0.000000,-1,-0.734569,-0.159709,-0.164319,0.058486,-0.031390,-0.143892
"2018-06-07 00:16:22.367 +0000",1528330582.367495,1.237537,-1.392752,1.149487,0.167353,0.984192,-0.057933,0.000000,0.000000,0.000000,-1,-0.570178,-0.038713,-0.112712,0.243413,-0.146072,-0.245275
"2018-06-07 00:16:22.378 +0000",1528330582.377569,1.257054,-1.392876,1.167500,0.168335,0.984214,-0.054618,0.000000,0.000000,0.000000,-1,-0.204941,0.258654,0.160530,0.353180,-0.245994,-0.450082
"2018-06-07 00:16:22.388 +0000",1528330582.387642,1.263092,-1.389542,1.167283,0.171789,0.983618,-0.054594,0.000000,0.000000,0.000000,-1,0.205899,0.760678,0.351439,0.294062,-0.153967,-0.473314
"2018-06-07 00:16:22.398 +0000",1528330582.397716,1.256498,-1.383967,1.149013,0.176639,0.982598,-0.057421,0.000000,0.000000,0.000000,-1,0.573393,1.227853,0.446613,0.195508,-0.026330,-0.363020
"2018-06-07 00:16:22.408 +0000",1528330582.407789,1.234329,-1.375947,1.113028,0.182756,0.981077,-0.063922,0.000000,0.000000,0.000000,-1,0.884540,1.328230,0.538698,0.193175,0.031390,-0.340436
"2018-06-07 00:16:22.418 +0000",1528330582.417862,1.208301,-1.366307,1.074627,0.189865,0.979165,-0.072007,0.000000,0.000000,0.000000,-1,1.084386,1.059273,0.671914,0.237198,0.028800,-0.277541
"2018-06-07 00:16:22.428 +0000",1528330582.427936,1.173810,-1.355325,1.033067,0.197174,0.976876,-0.082664,0.000000,0.000000,0.000000,-1,1.236046,0.450342,0.693459,0.233627,0.170677,-0.210030
"2018-06-07 00:16:22.438 +0000",1528330582.438009,1.132534,-1.343949,0.991187,0.203647,0.974380,-0.095441,0.000000,0.000000,0.000000,-1,1.304231,-0.200257,0.648386,0.198880,0.342972,-0.158435
"2018-06-07 00:16:22.448 +0000",1528330582.448083,1.084858,-1.332068,0.948775,0.209088,0.971640,-0.110437,0.000000,0.000000,0.000000,-1,1.316839,-0.749915,0.578992,0.190814,0.385859,-0.153189
"2018-06-07 00:16:22.458 +0000",1528330582.458156,1.037663,-1.320880,0.910756,0.212995,0.968933,-0.125695,0.000000,0.000000,0.000000,-1,1.349245,-1.094214,0.504773,0.176714,0.351883,-0.185035
"2018-06-07 00:16:22.468 +0000",1528330582.468230,0.988103,-1.309721,0.871834,0.215522,0.966113,-0.142034,0.000000,0.000000,0.000000,-1,1.444744,-1.188975,0.390260,0.134591,0.310361,-0.195872
"2018-06-07 00:16:22.478 +0000",1528330582.478303,0.934256,-1.298414,0.827926,0.216336,0.963133,-0.159911,0.000000,0.000000,0.000000,-1,1.640336,-1.116341,0.214693,0.059634,0.326937,-0.219804
"2018-06-07 00:16:22.488 +0000",1528330582.488376,0.872240,-1.285432,0.774331,0.215567,0.959559,-0.181038,0.000000,0.000000,0.000000,-1,1.954557,-0.999475,0.041135,-0.015249,0.374791,-0.270988
"2018-06-07 00:16:22.498 +0000",1528330582.498450,0.805795,-1.270737,0.714614,0.213221,0.955319,-0.204696,0.000000,0.000000,0.000000,-1,2.347214,-0.895757,-0.086389,-0.045924,0.333347,-0.325974
"2018-06-07 00:16:22.509 +0000",1528330582.508523,0.736358,-1.252603,0.650334,0.210107,0.949802,-0.231795,0.000000,0.000000,0.000000,-1,2.739417,-0.785697,-0.155808,-0.060968,0.251126,-0.307084
"2018-06-07 00:16:22.519 +0000",1528330582.518597,0.666821,-1.230972,0.584284,0.206154,0.942813,-0.261919,0.000000,0.000000,0.000000,-1,3.091976,-0.671208,-0.260620,-0.093148,0.175580,-0.264632
"2018-06-07 00:16:22.529 +0000",1528330582.528670,0.598144,-1.205570,0.517833,0.201119,0.934043,-0.295149,0.000000,0.000000,0.000000,-1,3.350295,-0.594165,-0.398670,-0.127267,0.122125,-0.221041
"2018-06-07 00:16:22.539 +0000",1528330582.538743,0.534455,-1.179349,0.455568,0.194338,0.924358,-0.328320,0.000000,0.000000,0.000000,-1,3.430367,-0.584448,-0.568777,-0.148409,0.209386,-0.123539
"2018-06-07 00:16:22.549 +0000",1528330582.548817,0.476369,-1.153190,0.400485,0.185977,0.914062,-0.360418,0.000000,0.000000,0.000000,-1,3.228332,-0.862519,-0.622905,-0.128589,0.307572,-0.015299
"2018-06-07 00:16:22.559 +0000",1528330582.558890,0.424398,-1.129652,0.358855,0.175816,0.904263,-0.389095,0.000000,0.000000,0.000000,-1,2.717571,-1.586809,-0.494765,-0.025486,0.310947,0.137294
"2018-06-07 00:16:22.569 +0000",1528330582.568964,0.377104,-1.108884,0.328611,0.164105,0.895202,-0.414345,0.000000,0.000000,0.000000,-1,2.216114,-2.070619,-0.376703,-0.013302,0.328507,0.189171
"2018-06-07 00:16:22.579 +0000",1528330582.579037,0.337360,-1.091489,0.307878,0.152643,0.887315,-0.435168,0.000000,0.000000,0.000000,-1,1.871562,-2.091943,-0.231840,-0.017115,0.385818,0.209887
"2018-06-07 00:16:22.589 +0000",1528330582.589111,0.304760,-1.075409,0.292835,0.142642,0.879785,-0.453465,0.000000,0.000000,0.000000,-1,1.702577,-1.841402,-0.141446,0.024900,0.387366,0.171483
"2018-06-07 00:16:22.599 +0000",1528330582.599184,0.278690,-1.059783,0.280789,0.134539,0.872249,-0.470190,0.000000,0.000000,0.000000,-1,1.639879,-1.433391,-0.097089,0.089888,0.369679,0.168432
"2018-06-07 00:16:22.609 +0000",1528330582.609257,0.257792,-1.043509,0.270721,0.128286,0.864175,-0.486562,0.000000,0.000000,0.000000,-1,1.628616,-1.135089,-0.034884,0.161249,0.353812,0.218053
"2018-06-07 00:16:22.619 +0000",1528330582.619331,0.240257,-1.027095,0.262788,0.123094,0.855800,-0.502446,0.000000,0.000000,0.000000,-1,1.705724,-1.051737,0.035099,0.203871,0.300908,0.211599
"2018-06-07 00:16:22.629 +0000",1528330582.629404,0.224552,-1.008491,0.256515,0.118713,0.846029,-0.519751,0.000000,0.000000,0.000000,-1,1.942329,-1.019647,0.131458,0.227249,0.259822,0.132330
"2018-06-07 00:16:22.639 +0000",1528330582.639478,0.209878,-0.986775,0.251722,0.114875,0.834252,-0.539283,0.000000,0.000000,0.000000,-1,2.226207,-1.087371,0.239251,0.180382,0.216087,0.056266
"2018-06-07 00:16:22.650 +0000",1528330582.649551,0.193392,-0.962586,0.247996,0.109816,0.820672,-0.560747,0.000000,0.000000,0.000000,-1,2.370095,-1.417575,0.280987,0.087999,0.151985,0.023775
"2018-06-07 00:16:22.660 +0000",1528330582.659624,0.173584,-0.938356,0.244713,0.102094,0.806588,-0.582230,0.000000,0.000000,0.000000,-1,2.395941,-1.793886,0.244337,-0.024503,0.108696,0.045792
"2018-06-07 00:16:22.670 +0000",1528330582.669698,0.151312,-0.914767,0.241937,0.091945,0.792421,-0.603004,0.000000,0.000000,0.000000,-1,2.302917,-2.052006,0.216908,-0.068644,0.066512,0.123680
"2018-06-07 00:16:22.680 +0000",1528330582.679771,0.129632,-0.892812,0.241932,0.081081,0.778839,-0.621960,0.000000,0.000000,0.000000,-1,2.109863,-2.157345,0.339667,-0.032466,0.008408,0.218137
"2018-06-07 00:16:22.690 +0000",1528330582.689845,0.110624,-0.872147,0.244734,0.071006,0.765712,-0.639251,0.000000,0.000000,0.000000,-1,1.920959,-2.082572,0.446806,-0.016090,-0.032054,0.302261
"2018-06-07 00:16:22.700 +0000",1528330582.699918,0.092763,-0.853864,0.249216,0.060865,0.753825,-0.654249,0.000000,0.000000,0.000000,-1,1.736979,-2.121619,0.474005,-0.038038,-0.040187,0.349074
"2018-06-07 00:16:22.710 +0000",1528330582.709991,0.074940,-0.836527,0.254070,0.050166,0.742321,-0.668163,0.000000,0.000000,0.000000,-1,1.683590,-2.128260,0.451519,-0.094935,-0.038311,0.333950
"2018-06-07 00:16:22.720 +0000",1528330582.720065,0.056949,-0.819098,0.257740,0.038868,0.730531,-0.681772,0.000000,0.000000,0.000000,-1,1.728588,-2.025507,0.323714,-0.133259,-0.028351,0.282541
"2018-06-07 00:16:22.730 +0000",1528330582.730138,0.038477,-0.800846,0.259672,0.026777,0.717945,-0.695584,0.000000,0.000000,0.000000,-1,1.771573,-1.944679,0.187243,-0.108640,-0.024845,0.236844
"2018-06-07 00:16:22.740 +0000",1528330582.740212,0.019598,-0.783471,0.260522,0.013884,0.705742,-0.708332,0.000000,0.000000,0.000000,-1,1.702955,-1.938994,0.094912,-0.071623,-0.021966,0.236911
"2018-06-07 00:16:22.750 +0000",1528330582.750285,0.000661,-0.767313,0.261534,0.000476,0.694204,-0.719778,0.000000,0.000000,0.000000,-1,1.566464,-1.944837,0.088753,0.011548,-0.026586,0.240835
"2018-06-07 00:16:22.760 +0000",1528330582.760359,-0.017456,-0.752663,0.262926,-0.012740,0.683585,-0.729759,0.000000,0.000000,0.000000,-1,1.416158,-1.870626,0.093616,0.063704,-0.008460,0.262047
"2018-06-07 00:16:22.770 +0000",1528330582.770432,-0.034482,-0.739221,0.264635,-0.025477,0.673713,-0.738554,0.000000,0.000000,0.000000,-1,1.280647,-1.777654,0.084516,0.070261,-0.014060,0.257566
"2018-06-07 00:16:22.781 +0000",1528330582.780505,-0.050704,-0.727040,0.266178,-0.037867,0.664661,-0.746184,0.000000,0.000000,0.000000,-1,1.193598,-1.707532,0.059104,0.014308,-0.032780,0.241027
"2018-06-07 00:16:22.791 +0000",1528330582.790579,-0.066650,-0.715865,0.268489,-0.050252,0.656270,-0.752850,0.000000,0.000000,0.000000,-1,1.086025,-1.750906,0.121611,-0.039714,-0.040807,0.235776
"2018-06-07 00:16:22.801 +0000",1528330582.800652,-0.081587,-0.706556,0.271780,-0.061987,0.649218,-0.758072,0.000000,0.000000,0.000000,-1,0.880490,-1.651921,0.203043,-0.070536,-0.076464,0.274795
"2018-06-07 00:16:22.811 +0000",1528330582.810726,-0.096266,-0.697728,0.274360,-0.073655,0.642478,-0.762755,0.000000,0.000000,0.000000,-1,0.884410,-1.584492,0.094590,-0.119674,-0.118537,0.283599
"2018-06-07 00:16:22.821 +0000",1528330582.820799,-0.110169,-0.688758,0.276165,-0.084882,0.635579,-0.767355,0.000000,0.000000,0.000000,-1,0.887900,-1.456890,0.034717,-0.156893,-0.173909,0.271780
"2018-06-07 00:16:22.831 +0000",1528330582.830872,-0.122709,-0.680637,0.277137,-0.095127,0.629288,-0.771328,0.000000,0.000000,0.000000,-1,0.791604,-1.241701,-0.035429,-0.146832,-0.162140,0.265179
"2018-06-07 00:16:22.841 +0000",1528330582.840946,-0.132462,-0.672736,0.277616,-0.103298,0.623128,-0.775268,0.000000,0.000000,0.000000,-1,0.785269,-0.927611,-0.069997,-0.152164,-0.192922,0.265777
"2018-06-07 00:16:22.851 +0000",1528330582.851019,-0.139917,-0.665059,0.277806,-0.109739,0.617105,-0.779190,0.000000,0.000000,0.000000,-1,0.721170,-0.702646,-0.093935,-0.133395,-0.213877,0.275147
"2018-06-07 00:16:22.861 +0000",1528330582.861093,-0.145935,-0.658720,0.277446,-0.114993,0.612105,-0.782371,0.000000,0.000000,0.000000,-1,0.585726,-0.534950,-0.121104,-0.111097,-0.181777,0.276008
"2018-06-07 00:16:22.871 +0000",1528330582.871166,-0.150801,-0.653765,0.276547,-0.119253,0.608179,-0.784791,0.000000,0.000000,0.000000,-1,0.438720,-0.392552,-0.144017,-0.092326,-0.172541,0.282227
"2018-06-07 00:16:22.881 +0000",1528330582.881240,-0.155133,-0.650579,0.275083,-0.122950,0.605647,-0.786177,0.000000,0.000000,0.000000,-1,0.245571,-0.324931,-0.167043,-0.058706,-0.164470,0.278074
"2018-06-07 00:16:22.891 +0000",1528330582.891313,-0.157960,-0.648658,0.273936,-0.125355,0.604117,-0.786974,0.000000,0.000000,0.000000,-1,0.140990,-0.187157,-0.106166,-0.044628,-0.183020,0.267427
"2018-06-07 00:16:22.901 +0000",1528330582.901386,-0.162418,-0.648802,0.271474,-0.128848,0.604232,-0.786321,0.000000,0.000000,0.000000,-1,-0.114133,-0.338805,-0.238327,-0.073331,-0.148391,0.203558
"2018-06-07 00:16:22.911 +0000",1528330582.911460,-0.167735,-0.650668,0.267865,-0.132838,0.605718,-0.784512,0.000000,0.000000,0.000000,-1,-0.248825,-0.263530,-0.215211,0.027842,-0.002386,0.119168
"2018-06-07 00:16:22.922 +0000",1528330582.921533,-0.170419,-0.653153,0.266139,-0.134688,0.607694,-0.782667,0.000000,0.000000,0.000000,-1,-0.270149,-0.140223,-0.052382,-0.017518,-0.202863,0.099653
"2018-06-07 00:16:22.932 +0000",1528330582.931607,-0.171295,-0.656308,0.266186,-0.135046,0.610196,-0.780656,0.000000,0.000000,0.000000,-1,-0.334358,-0.074052,0.094246,-0.092310,-0.349286,0.090287
"2018-06-07 00:16:22.942 +0000",1528330582.941680,-0.170958,-0.660825,0.267540,-0.134313,0.613768,-0.777977,0.000000,0.000000,0.000000,-1,-0.456061,-0.044136,0.209706,-0.079615,-0.364928,0.105965
"2018-06-07 00:16:22.952 +0000",1528330582.951753,-0.169443,-0.666886,0.269941,-0.132504,0.618542,-0.774498,0.000000,0.000000,0.000000,-1,-0.595558,0.023108,0.312407,-0.016880,-0.271283,0.083458
"2018-06-07 00:16:22.962 +0000",1528330582.961827,-0.166618,-0.674331,0.273383,-0.129548,0.624375,-0.770307,0.000000,0.000000,0.000000,-1,-0.711904,0.080555,0.410724,0.026566,-0.220505,0.031583
"2018-06-07 00:16:22.972 +0000",1528330582.971900,-0.162617,-0.682968,0.277959,-0.125587,0.631098,-0.765469,0.000000,0.000000,0.000000,-1,-0.819862,0.119345,0.513270,0.016990,-0.209345,-0.013462
"2018-06-07 00:16:22.982 +0000",1528330582.981974,-0.157376,-0.692901,0.283683,-0.120585,0.638772,-0.759888,0.000000,0.000000,0.000000,-1,-0.931001,0.171291,0.618014,-0.009969,-0.209405,-0.024872
"2018-06-07 00:16:22.992 +0000",1528330582.992047,-0.150648,-0.704024,0.290697,-0.114397,0.647290,-0.753610,0.000000,0.000000,0.000000,-1,-1.037951,0.236421,0.722786,-0.042692,-0.210797,-0.046072
"2018-06-07 00:16:23.002 +0000",1528330583.002120,-0.142202,-0.716309,0.299100,-0.106892,0.656605,-0.746621,0.000000,0.000000,0.000000,-1,-1.136535,0.313636,0.830800,-0.083568,-0.195759,-0.081794
"2018-06-07 00:16:23.012 +0000",1528330583.012194,-0.131611,-0.729239,0.309064,-0.097857,0.666303,-0.739232,0.000000,0.000000,0.000000,-1,-1.192054,0.423923,0.934510,-0.107572,-0.188077,-0.138041
"2018-06-07 00:16:23.022 +0000",1528330583.022267,-0.118421,-0.742628,0.320504,-0.087036,0.676226,-0.731534,0.000000,0.000000,0.000000,-1,-1.224381,0.593629,1.020054,-0.111969,-0.183459,-0.182437
"2018-06-07 00:16:23.032 +0000",1528330583.032341,-0.102256,-0.756558,0.332817,-0.074232,0.686422,-0.723404,0.000000,0.000000,0.000000,-1,-1.288850,0.841457,1.041360,-0.142642,-0.187612,-0.141250
"2018-06-07 00:16:23.042 +0000",1528330583.042414,-0.083442,-0.769878,0.344823,-0.059841,0.696048,-0.715497,0.000000,0.000000,0.000000,-1,-1.200204,1.109927,0.953735,-0.236759,-0.157016,-0.107211
"2018-06-07 00:16:23.052 +0000",1528330583.052488,-0.064858,-0.779669,0.354151,-0.046091,0.703044,-0.709651,0.000000,0.000000,0.000000,-1,-0.812341,1.182603,0.633592,-0.403876,0.002538,-0.150121
"2018-06-07 00:16:23.063 +0000",1528330583.062561,-0.056885,-0.782099,0.356366,-0.040334,0.704770,-0.708288,0.000000,0.000000,0.000000,-1,-0.016849,0.389400,-0.003017,-0.687556,0.431476,-0.505335
"2018-06-07 00:16:23.073 +0000",1528330583.072634,-0.062541,-0.779727,0.352557,-0.044444,0.703085,-0.709715,0.000000,0.000000,0.000000,-1,0.182671,-0.502398,-0.297568,-0.615758,1.068231,-0.912645
"2018-06-07 00:16:23.083 +0000",1528330583.082708,-0.070607,-0.781899,0.351366,-0.050059,0.704629,-0.707808,0.000000,0.000000,0.000000,-1,-0.342735,-0.620461,0.021683,0.063350,1.418754,-0.718721
"2018-06-07 00:16:23.093 +0000",1528330583.092781,-0.064497,-0.789333,0.353732,-0.045395,0.709884,-0.702854,0.000000,0.000000,0.000000,-1,-0.880533,0.805249,0.259401,0.278809,1.295762,0.101825
"2018-06-07 00:16:23.103 +0000",1528330583.102855,-0.049902,-0.802576,0.357393,-0.034661,0.719148,-0.693991,0.000000,0.000000,0.000000,-1,-1.400492,1.207395,0.352116,-0.008140,0.642119,0.558539
"2018-06-07 00:16:23.113 +0000",1528330583.112928,-0.034412,-0.817921,0.362620,-0.023524,0.729726,-0.683334,0.000000,0.000000,0.000000,-1,-1.525082,1.185826,0.439466,-0.282491,-0.123342,0.184341
"2018-06-07 00:16:23.123 +0000",1528330583.123001,-0.013507,-0.832829,0.368769,-0.009087,0.739838,-0.672723,0.000000,0.000000,0.000000,-1,-1.427019,1.817278,0.448608,-0.351081,-0.516388,0.333200
"2018-06-07 00:16:23.133 +0000",1528330583.133075,0.015040,-0.845535,0.374898,0.009976,0.748326,-0.663256,0.000000,0.000000,0.000000,-1,-1.218203,2.555833,0.383588,-0.303937,-0.667576,0.488039
"2018-06-07 00:16:23.143 +0000",1528330583.143148,0.048007,-0.858004,0.379562,0.031382,0.756539,-0.653195,0.000000,0.000000,0.000000,-1,-1.281453,3.028391,0.218382,-0.236140,-0.634469,0.534054
"2018-06-07 00:16:23.153 +0000",1528330583.153222,0.082684,-0.872808,0.382402,0.053078,0.766137,-0.640481,0.000000,0.000000,0.000000,-1,-1.552400,3.279752,0.045480,-0.137917,-0.482903,0.577478
"2018-06-07 00:16:23.163 +0000",1528330583.163295,0.117772,-0.889883,0.383842,0.073967,0.776998,-0.625142,0.000000,0.000000,0.000000,-1,-1.722447,3.394138,-0.119448,-0.009712,-0.287450,0.544545
"2018-06-07 00:16:23.173 +0000",1528330583.173368,0.150294,-0.907789,0.383609,0.092156,0.788145,-0.608551,0.000000,0.000000,0.000000,-1,-1.770336,3.174044,-0.284552,0.101401,0.011431,0.373809
"2018-06-07 00:16:23.183 +0000",1528330583.183442,0.174162,-0.924278,0.381249,0.104388,0.798186,-0.593297,0.000000,0.000000,0.000000,-1,-1.516214,2.325750,-0.445721,0.150938,0.431596,0.097829
"2018-06-07 00:16:23.194 +0000",1528330583.193515,0.187496,-0.939205,0.376338,0.110056,0.807089,-0.580081,0.000000,0.000000,0.000000,-1,-1.387352,1.515403,-0.576375,0.178152,0.859873,0.006595
"2018-06-07 00:16:23.204 +0000",1528330583.203589,0.195340,-0.953964,0.373184,0.112278,0.815715,-0.567452,0.000000,0.000000,0.000000,-1,-1.415590,0.906337,-0.380164,0.370495,1.026616,0.061150
"2018-06-07 00:16:23.214 +0000",1528330583.213662,0.208340,-0.968250,0.379074,0.117222,0.823895,-0.554485,0.000000,0.000000,0.000000,-1,-1.448481,0.826889,0.219890,0.499386,0.854953,0.076305
"2018-06-07 00:16:23.224 +0000",1528330583.223736,0.232246,-0.981565,0.395867,0.127907,0.831368,-0.540801,0.000000,0.000000,0.000000,-1,-1.517716,1.063890,0.726291,0.450493,0.528846,0.077895
"2018-06-07 00:16:23.234 +0000",1528330583.233810,0.263877,-0.995340,0.418215,0.141945,0.838944,-0.525379,0.000000,0.000000,0.000000,-1,-1.664001,1.351616,0.865146,0.255973,0.217620,0.112918
"2018-06-07 00:16:23.244 +0000",1528330583.243883,0.298831,-1.009805,0.442031,0.156630,0.846728,-0.508446,0.000000,0.000000,0.000000,-1,-1.739247,1.505381,0.796924,0.048647,0.001096,0.109138
"2018-06-07 00:16:23.254 +0000",1528330583.253957,0.333695,-1.023671,0.464040,0.170395,0.854024,-0.491536,0.000000,0.000000,0.000000,-1,-1.604706,1.643674,0.630293,-0.118790,-0.085942,0.021656
"2018-06-07 00:16:23.264 +0000",1528330583.264030,0.368433,-1.035695,0.483526,0.183652,0.860217,-0.475707,0.000000,0.000000,0.000000,-1,-1.422163,1.833551,0.498123,-0.151624,-0.111270,0.004607
"2018-06-07 00:16:23.274 +0000",1528330583.274104,0.404226,-1.046164,0.501023,0.197005,0.865508,-0.460524,0.000000,0.000000,0.000000,-1,-1.247266,2.138573,0.389970,-0.084365,-0.124953,0.063414
"2018-06-07 00:16:23.284 +0000",1528330583.284177,0.440114,-1.055302,0.515424,0.210023,0.870049,-0.445985,0.000000,0.000000,0.000000,-1,-1.077231,2.365811,0.240727,-0.084581,-0.118767,0.061357
"2018-06-07 00:16:23.294 +0000",1528330583.294250,0.474639,-1.063796,0.527154,0.221907,0.874205,-0.431880,0.000000,0.000000,0.000000,-1,-0.971326,2.413810,0.121228,-0.064726,-0.120955,0.044872
"2018-06-07 00:16:23.304 +0000",1528330583.304324,0.507456,-1.072148,0.537597,0.232402,0.878230,-0.417971,0.000000,0.000000,0.000000,-1,-0.970471,2.316526,0.021983,-0.076320,-0.116526,0.062990
"2018-06-07 00:16:23.314 +0000",1528330583.314397,0.537992,-1.081176,0.548125,0.240982,0.882511,-0.403855,0.000000,0.000000,0.000000,-1,-1.051841,2.031036,-0.015233,-0.076279,-0.114796,0.078095
"2018-06-07 00:16:23.324 +0000",1528330583.324471,0.568004,-1.090751,0.562301,0.248435,0.886974,-0.389300,0.000000,0.000000,0.000000,-1,-1.191966,1.629517,0.090409,0.060297,-0.105800,0.095401
"2018-06-07 00:16:23.335 +0000",1528330583.334544,0.599197,-1.101046,0.582279,0.255292,0.891681,-0.373803,0.000000,0.000000,0.000000,-1,-1.389172,1.243019,0.241402,0.165179,-0.026721,0.111733
"2018-06-07 00:16:23.345 +0000",1528330583.344617,0.633018,-1.111756,0.608311,0.262121,0.896478,-0.357235,0.000000,0.000000,0.000000,-1,-1.579887,0.993935,0.350830,0.202662,0.024878,0.103955
"2018-06-07 00:16:23.355 +0000",1528330583.354691,0.668139,-1.122662,0.637277,0.268430,0.901257,-0.340116,0.000000,0.000000,0.000000,-1,-1.622754,0.884089,0.338777,0.148608,0.014286,0.029279
"2018-06-07 00:16:23.365 +0000",1528330583.364764,0.702664,-1.132566,0.666054,0.274228,0.905504,-0.323820,0.000000,0.000000,0.000000,-1,-1.498651,0.828508,0.324347,0.098926,-0.020677,-0.035906
"2018-06-07 00:16:23.375 +0000",1528330583.374838,0.736131,-1.141014,0.694116,0.279763,0.909056,-0.308783,0.000000,0.000000,0.000000,-1,-1.353741,0.783859,0.334642,0.117652,-0.061904,-0.011255
"2018-06-07 00:16:23.385 +0000",1528330583.384911,0.768767,-1.148450,0.720997,0.284982,0.912130,-0.294622,0.000000,0.000000,0.000000,-1,-1.275661,0.827105,0.282958,0.068351,-0.086507,0.059271
"2018-06-07 00:16:23.395 +0000",1528330583.394984,0.800005,-1.155474,0.745569,0.289442,0.914986,-0.281107,0.000000,0.000000,0.000000,-1,-1.163642,0.882707,0.187131,-0.060285,-0.085717,0.036951
"2018-06-07 00:16:23.405 +0000",1528330583.405058,0.829078,-1.161946,0.767696,0.293118,0.917579,-0.268568,0.000000,0.000000,0.000000,-1,-1.057077,0.865692,0.126601,-0.113980,-0.080039,-0.038149
"2018-06-07 00:16:23.415 +0000",1528330583.415131,0.856355,-1.167942,0.788466,0.296172,0.919946,-0.256865,0.000000,0.000000,0.000000,-1,-0.963291,0.781548,0.097099,-0.101790,-0.054467,-0.070757
"2018-06-07 00:16:23.425 +0000",1528330583.425205,0.881781,-1.173219,0.807811,0.298855,0.922002,-0.246161,0.000000,0.000000,0.000000,-1,-0.896991,0.768623,0.081851,-0.072521,-0.013509,-0.107354
"2018-06-07 00:16:23.435 +0000",1528330583.435278,0.907553,-1.177904,0.826782,0.301692,0.923806,-0.235716,0.000000,0.000000,0.000000,-1,-0.838316,0.833509,0.092662,-0.015681,0.017402,-0.098345
"2018-06-07 00:16:23.445 +0000",1528330583.445352,0.932208,-1.181692,0.843981,0.304599,0.925249,-0.226120,0.000000,0.000000,0.000000,-1,-0.714457,0.884334,0.096829,0.027127,0.033873,-0.124344
"2018-06-07 00:16:23.455 +0000",1528330583.455425,0.955872,-1.184790,0.859190,0.307521,0.926420,-0.217194,0.000000,0.000000,0.000000,-1,-0.626369,1.005320,0.100207,0.035451,0.015017,-0.114929
"2018-06-07 00:16:23.465 +0000",1528330583.465498,0.978432,-1.186871,0.873165,0.310742,0.927202,-0.209125,0.000000,0.000000,0.000000,-1,-0.504591,0.900184,0.121135,0.043490,-0.027040,-0.084698
"2018-06-07 00:16:23.476 +0000",1528330583.475572,0.994623,-1.188536,0.883075,0.312792,0.927824,-0.203225,0.000000,0.000000,0.000000,-1,-0.371400,0.640712,0.042628,0.008146,-0.092619,-0.073615
"2018-06-07 00:16:23.486 +0000",1528330583.485645,1.008584,-1.190507,0.891679,0.314051,0.928557,-0.197863,0.000000,0.000000,0.000000,-1,-0.386833,0.589222,0.007018,-0.009745,-0.146911,0.022799
"2018-06-07 00:16:23.496 +0000",1528330583.495719,1.024164,-1.192870,0.902890,0.315220,0.929432,-0.191806,0.000000,0.000000,0.000000,-1,-0.488662,0.472545,0.014441,0.036968,-0.189426,0.007235
"2018-06-07 00:16:23.506 +0000",1528330583.505792,1.038747,-1.196166,0.914621,0.315342,0.930643,-0.185633,0.000000,0.000000,0.000000,-1,-0.545511,0.332301,-0.088023,0.030972,-0.165674,-0.014486
"2018-06-07 00:16:23.516 +0000",1528330583.515865,1.051559,-1.200263,0.925510,0.314381,0.932134,-0.179685,0.000000,0.000000,0.000000,-1,-0.538497,0.245940,-0.170039,0.033519,-0.135656,-0.023471
"2018-06-07 00:16:23.526 +0000",1528330583.525939,1.063565,-1.204647,0.935799,0.312941,0.933713,-0.173910,0.000000,0.000000,0.000000,-1,-0.540302,0.247195,-0.208755,0.062349,-0.126386,-0.072595
"2018-06-07 00:16:23.536 +0000",1528330583.536012,1.077910,-1.209753,0.947702,0.311199,0.935529,-0.167145,0.000000,0.000000,0.000000,-1,-0.634589,0.344817,-0.252356,0.071507,-0.121686,-0.067153
"2018-06-07 00:16:23.546 +0000",1528330583.546086,1.096263,-1.215876,0.962467,0.309113,0.937674,-0.158786,0.000000,0.000000,0.000000,-1,-0.771805,0.488524,-0.319390,0.060302,-0.115088,-0.054089
"2018-06-07 00:16:23.556 +0000",1528330583.556159,1.112791,-1.221313,0.974365,0.307118,0.939550,-0.151399,0.000000,0.000000,0.000000,-1,-0.867887,0.628046,-0.408042,0.007381,-0.101583,-0.022063
"2018-06-07 00:16:23.566 +0000",1528330583.566232,1.134766,-1.228050,0.991061,0.304627,0.941835,-0.141938,0.000000,0.000000,0.000000,-1,-0.902066,0.632607,-0.471414,-0.031922,-0.084993,-0.037170
"2018-06-07 00:16:23.576 +0000",1528330583.576306,1.157060,-1.233654,1.008371,0.302878,0.943704,-0.132988,0.000000,0.000000,0.000000,-1,-0.908047,0.608602,-0.510193,-0.043876,-0.039422,-0.087090
"2018-06-07 00:16:23.586 +0000",1528330583.586379,1.179169,-1.239613,1.025201,0.300542,0.945658,-0.124111,0.000000,0.000000,0.000000,-1,-0.925740,0.670149,-0.539016,-0.032384,0.045950,-0.063313
"2018-06-07 00:16:23.596 +0000",1528330583.596453,1.202749,-1.245873,1.042660,0.297855,0.947675,-0.114858,0.000000,0.000000,0.000000,-1,-0.935175,0.753606,-0.551659,-0.007572,0.141818,-0.033259
"2018-06-07 00:16:23.607 +0000",1528330583.606526,1.230463,-1.254254,1.063724,0.293426,0.950317,-0.103906,0.000000,0.000000,0.000000,-1,-0.892103,0.762517,-0.553883,0.018250,0.217361,-0.067679
"2018-06-07 00:16:23.617 +0000",1528330583.616599,1.256631,-1.262330,1.083495,0.288735,0.952800,-0.093818,0.000000,0.000000,0.000000,-1,-0.800569,0.715627,-0.568213,0.022620,0.270909,-0.140176
"2018-06-07 00:16:23.627 +0000",1528330583.626673,1.279199,-1.270099,1.100113,0.283680,0.955130,-0.085147,0.000000,0.000000,0.000000,-1,-0.665835,0.648064,-0.597760,0.026241,0.299005,-0.211987
"2018-06-07 00:16:23.637 +0000",1528330583.636746,1.296568,-1.277763,1.111937,0.278061,0.957372,-0.078223,0.000000,0.000000,0.000000,-1,-0.499430,0.585070,-0.648880,0.063645,0.305628,-0.275888
"2018-06-07 00:16:23.647 +0000",1528330583.646820,1.307564,-1.285394,1.117774,0.271841,0.959549,-0.073257,0.000000,0.000000,0.000000,-1,-0.312065,0.519911,-0.693600,0.134821,0.303574,-0.288559
"2018-06-07 00:16:23.657 +0000",1528330583.656893,1.311834,-1.292341,1.117608,0.265701,0.961481,-0.070387,0.000000,0.000000,0.000000,-1,-0.128533,0.399454,-0.642740,0.253418,0.339712,-0.254289
"2018-06-07 00:16:23.667 +0000",1528330583.666966,1.309989,-1.297121,1.113806,0.261128,0.962784,-0.069691,0.000000,0.000000,0.000000,-1,0.011850,0.095932,-0.421286,0.474162,0.443664,-0.166057
"2018-06-07 00:16:23.677 +0000",1528330583.677040,1.301164,-1.299203,1.105507,0.258570,0.963345,-0.071459,0.000000,0.000000,0.000000,-1,0.222670,-0.111803,-0.220151,0.629827,0.497272,-0.056181
"2018-06-07 00:16:23.687 +0000",1528330583.687113,1.282258,-1.299550,1.086537,0.256853,0.963438,-0.076240,0.000000,0.000000,0.000000,-1,0.565597,-0.041945,-0.159422,0.393247,0.339465,-0.129693
"2018-06-07 00:16:23.697 +0000",1528330583.697187,1.253804,-1.298153,1.057987,0.255858,0.963062,-0.083936,0.000000,0.000000,0.000000,-1,0.822396,-0.127192,-0.079584,0.127198,0.191356,-0.344775
"2018-06-07 00:16:23.707 +0000",1528330583.707260,1.220019,-1.295557,1.025247,0.255225,0.962360,-0.093389,0.000000,0.000000,0.000000,-1,0.937756,-0.257670,-0.040429,-0.013617,0.213131,-0.357310
"2018-06-07 00:16:23.717 +0000",1528330583.717334,1.181498,-1.292441,0.989149,0.254212,0.961509,-0.104287,0.000000,0.000000,0.000000,-1,1.062138,-0.421834,-0.077764,-0.149460,0.250451,-0.326011
"2018-06-07 00:16:23.727 +0000",1528330583.727407,1.133993,-1.288592,0.946104,0.252325,0.960444,-0.117806,0.000000,0.000000,0.000000,-1,1.303357,-0.679993,-0.136076,-0.232809,0.256322,-0.365059
"2018-06-07 00:16:23.737 +0000",1528330583.737480,1.075237,-1.282812,0.894676,0.249850,0.958818,-0.135057,0.000000,0.000000,0.000000,-1,1.617646,-1.021671,-0.124882,-0.219440,0.219984,-0.382369
"2018-06-07 00:16:23.748 +0000",1528330583.747554,1.006390,-1.273824,0.836497,0.247239,0.956227,-0.156528,0.000000,0.000000,0.000000,-1,1.981903,-1.395306,-0.051508,-0.113405,0.197628,-0.381558
"2018-06-07 00:16:23.758 +0000",1528330583.757627,0.930707,-1.260722,0.773974,0.244724,0.952311,-0.182242,0.000000,0.000000,0.000000,-1,2.358454,-1.636177,0.045888,-0.017490,0.205190,-0.364694
"2018-06-07 00:16:23.768 +0000",1528330583.767701,0.854331,-1.243375,0.711168,0.242528,0.946875,-0.211202,0.000000,0.000000,0.000000,-1,2.674981,-1.651041,0.135474,0.053386,0.223307,-0.256328
"2018-06-07 00:16:23.778 +0000",1528330583.777774,0.782139,-1.222573,0.651174,0.240495,0.939981,-0.242067,0.000000,0.000000,0.000000,-1,2.894163,-1.494651,0.160167,0.109191,0.234076,-0.121031
"2018-06-07 00:16:23.788 +0000",1528330583.787847,0.716492,-1.199476,0.595167,0.238295,0.931849,-0.273625,0.000000,0.000000,0.000000,-1,3.044497,-1.249229,0.112133,0.154421,0.253942,-0.022564
"2018-06-07 00:16:23.798 +0000",1528330583.797921,0.656408,-1.175062,0.542291,0.235251,0.922714,-0.305376,0.000000,0.000000,0.000000,-1,3.136744,-1.060683,-0.024137,0.176965,0.311814,0.013689
"2018-06-07 00:16:23.808 +0000",1528330583.807994,0.599819,-1.150283,0.492137,0.230441,0.912880,-0.336966,0.000000,0.000000,0.000000,-1,3.149590,-1.055549,-0.193028,0.171216,0.373040,-0.004923
"2018-06-07 00:16:23.818 +0000",1528330583.818068,0.547202,-1.125699,0.446256,0.224012,0.902569,-0.367677,0.000000,0.000000,0.000000,-1,3.047570,-1.087187,-0.307980,0.185214,0.404438,0.001940
"2018-06-07 00:16:23.828 +0000",1528330583.828141,0.500485,-1.102499,0.405035,0.216588,0.892338,-0.396005,0.000000,0.000000,0.000000,-1,2.840465,-0.898378,-0.443564,0.142817,0.412487,0.112207
"2018-06-07 00:16:23.838 +0000",1528330583.838214,0.462057,-1.081034,0.368490,0.209706,0.882445,-0.421086,0.000000,0.000000,0.000000,-1,2.602095,-0.483838,-0.502048,0.094401,0.362703,0.249729
"2018-06-07 00:16:23.848 +0000",1528330583.848288,0.433436,-1.060956,0.337835,0.204971,0.872823,-0.442906,0.000000,0.000000,0.000000,-1,2.371100,-0.081921,-0.425055,0.036408,0.266139,0.331776
"2018-06-07 00:16:23.858 +0000",1528330583.858361,0.412596,-1.042083,0.313581,0.202267,0.863457,-0.462091,0.000000,0.000000,0.000000,-1,2.143051,0.027736,-0.285455,-0.058758,0.207985,0.337397
"2018-06-07 00:16:23.868 +0000",1528330583.868435,0.395208,-1.024245,0.294329,0.200101,0.854322,-0.479679,0.000000,0.000000,0.000000,-1,1.978536,-0.143326,-0.178011,-0.176907,0.189394,0.323596
"2018-06-07 00:16:23.879 +0000",1528330583.878508,0.377163,-1.006472,0.278037,0.196975,0.844950,-0.497251,0.000000,0.000000,0.000000,-1,1.961579,-0.523481,-0.111313,-0.291304,0.153463,0.314497
"2018-06-07 00:16:23.889 +0000",1528330583.888581,0.355120,-0.987704,0.262762,0.191447,0.834764,-0.516251,0.000000,0.000000,0.000000,-1,2.069150,-1.056737,-0.102354,-0.351726,0.105407,0.287263
"2018-06-07 00:16:23.899 +0000",1528330583.898655,0.326790,-0.967387,0.247156,0.182154,0.823406,-0.537421,0.000000,0.000000,0.000000,-1,2.242346,-1.682893,-0.147598,-0.352793,0.058522,0.228690
"2018-06-07 00:16:23.909 +0000",1528330583.908728,0.292834,-0.944816,0.231440,0.169127,0.810389,-0.560949,0.000000,0.000000,0.000000,-1,2.464729,-2.217848,-0.180857,-0.301711,0.032537,0.178258
"2018-06-07 00:16:23.919 +0000",1528330583.918802,0.256326,-0.920372,0.216321,0.153517,0.795827,-0.585739,0.000000,0.000000,0.000000,-1,2.602729,-2.454485,-0.204450,-0.211668,0.036143,0.170791
"2018-06-07 00:16:23.929 +0000",1528330583.928875,0.221948,-0.895423,0.203990,0.137623,0.780474,-0.609852,0.000000,0.000000,0.000000,-1,2.569509,-2.439560,-0.120430,-0.128986,-0.015154,0.187198
"2018-06-07 00:16:23.939 +0000",1528330583.938948,0.191090,-0.870619,0.194498,0.122381,0.764728,-0.632623,0.000000,0.000000,0.000000,-1,2.536364,-2.288401,-0.062905,-0.068197,-0.045505,0.151605
"2018-06-07 00:16:23.949 +0000",1528330583.949022,0.163879,-0.845910,0.186889,0.108174,0.748575,-0.654166,0.000000,0.000000,0.000000,-1,2.482522,-2.074524,-0.053555,-0.064199,0.017188,0.148917
"2018-06-07 00:16:23.959 +0000",1528330583.959095,0.140685,-0.822557,0.181019,0.095400,0.732888,-0.673626,0.000000,0.000000,0.000000,-1,2.303535,-1.796278,-0.031898,-0.059053,0.027076,0.227414
"2018-06-07 00:16:23.969 +0000",1528330583.969169,0.121226,-0.800165,0.176083,0.084238,0.717471,-0.691475,0.000000,0.000000,0.000000,-1,2.243584,-1.508725,-0.056740,-0.075281,-0.036120,0.292763
"2018-06-07 00:16:23.979 +0000",1528330583.979242,0.104244,-0.778205,0.171086,0.074106,0.702002,-0.708308,0.000000,0.000000,0.000000,-1,2.205908,-1.274809,-0.103302,-0.084405,-0.078559,0.334971
"2018-06-07 00:16:23.989 +0000",1528330583.989315,0.089167,-0.757235,0.166684,0.064715,0.686915,-0.723850,0.000000,0.000000,0.000000,-1,2.057825,-1.173068,-0.117725,-0.077807,-0.103144,0.414127
"2018-06-07 00:16:23.999 +0000",1528330583.999389,0.074381,-0.738542,0.162586,0.054950,0.673211,-0.737405,0.000000,0.000000,0.000000,-1,1.803934,-1.221942,-0.149556,-0.074939,-0.140465,0.445733
"2018-06-07 00:16:24.009 +0000",1528330584.009462,0.058918,-0.722717,0.159662,0.044164,0.661425,-0.748710,0.000000,0.000000,0.000000,-1,1.512707,-1.376674,-0.093405,0.021983,-0.144274,0.400916
"2018-06-07 00:16:24.020 +0000",1528330584.019536,0.042311,-0.708493,0.157384,0.032119,0.650690,-0.758663,0.000000,0.000000,0.000000,-1,1.412006,-1.496602,-0.095675,0.111161,-0.097040,0.300320
"2018-06-07 00:16:24.030 +0000",1528330584.029609,0.026480,-0.695206,0.155773,0.020332,0.640543,-0.767652,0.000000,0.000000,0.000000,-1,1.292058,-1.461903,-0.072711,0.129600,-0.119700,0.261991
"2018-06-07 00:16:24.040 +0000",1528330584.039682,0.010672,-0.683316,0.154712,0.008276,0.631368,-0.775439,0.000000,0.000000,0.000000,-1,1.141789,-1.518375,-0.056396,0.137827,-0.114415,0.258502
"2018-06-07 00:16:24.050 +0000",1528330584.049756,-0.005843,-0.673089,0.154026,-0.004569,0.623405,-0.781886,0.000000,0.000000,0.000000,-1,0.973812,-1.617651,-0.054149,0.116370,-0.139381,0.286173
"2018-06-07 00:16:24.060 +0000",1528330584.059829,-0.023482,-0.664852,0.152932,-0.018479,0.616942,-0.786791,0.000000,0.000000,0.000000,-1,0.793679,-1.710126,-0.111015,0.031205,-0.183257,0.310793
"2018-06-07 00:16:24.070 +0000",1528330584.069903,-0.041994,-0.658118,0.151621,-0.033214,0.611629,-0.790446,0.000000,0.000000,0.000000,-1,0.619505,-1.773117,-0.126934,-0.020772,-0.235683,0.327998
"2018-06-07 00:16:24.080 +0000",1528330584.079976,-0.060635,-0.653249,0.150138,-0.048121,0.607770,-0.792653,0.000000,0.000000,0.000000,-1,0.428452,-1.742836,-0.144694,-0.071050,-0.311933,0.356603
"2018-06-07 00:16:24.090 +0000",1528330584.090049,-0.077947,-0.650424,0.148670,-0.061969,0.605524,-0.793410,0.000000,0.000000,0.000000,-1,0.219165,-1.578814,-0.129754,-0.117794,-0.367960,0.379637
"2018-06-07 00:16:24.100 +0000",1528330584.100123,-0.092274,-0.649950,0.147535,-0.073356,0.605146,-0.792727,0.000000,0.000000,0.000000,-1,0.013694,-1.273306,-0.082142,-0.127785,-0.381758,0.405337
"2018-06-07 00:16:24.110 +0000",1528330584.110196,-0.102896,-0.651442,0.147023,-0.081679,0.606334,-0.791004,0.000000,0.000000,0.000000,-1,-0.207764,-0.949299,-0.006473,-0.138490,-0.364177,0.425403
"2018-06-07 00:16:24.120 +0000",1528330584.120270,-0.110445,-0.655364,0.147101,-0.087385,0.609448,-0.787995,0.000000,0.000000,0.000000,-1,-0.448024,-0.699973,0.064719,-0.145357,-0.324917,0.390580
"2018-06-07 00:16:24.130 +0000",1528330584.130343,-0.115926,-0.661867,0.147817,-0.091243,0.614591,-0.783551,0.000000,0.000000,0.000000,-1,-0.698809,-0.555031,0.151767,-0.143025,-0.296979,0.315259
"2018-06-07 00:16:24.140 +0000",1528330584.140416,-0.119812,-0.671352,0.149391,-0.093586,0.622045,-0.777368,0.000000,0.000000,0.000000,-1,-0.957033,-0.458483,0.255901,-0.116695,-0.290701,0.255868
"2018-06-07 00:16:24.150 +0000",1528330584.150490,-0.121816,-0.683032,0.152024,-0.094254,0.631148,-0.769914,0.000000,0.000000,0.000000,-1,-1.178609,-0.327847,0.370807,-0.111816,-0.309355,0.202989
"2018-06-07 00:16:24.161 +0000",1528330584.160563,-0.121436,-0.696669,0.155866,-0.092911,0.641666,-0.761335,0.000000,0.000000,0.000000,-1,-1.347698,-0.157542,0.484632,-0.131577,-0.332188,0.135877
"2018-06-07 00:16:24.171 +0000",1528330584.170637,-0.118207,-0.711765,0.161042,-0.089299,0.653171,-0.751925,0.000000,0.000000,0.000000,-1,-1.465315,0.041467,0.594121,-0.146663,-0.339939,0.056735
"2018-06-07 00:16:24.181 +0000",1528330584.180710,-0.112065,-0.728057,0.167402,-0.083478,0.665420,-0.741786,0.000000,0.000000,0.000000,-1,-1.549078,0.246195,0.671279,-0.156161,-0.325775,-0.018468
"2018-06-07 00:16:24.191 +0000",1528330584.190783,-0.103235,-0.744928,0.174407,-0.075757,0.677919,-0.731222,0.000000,0.000000,0.000000,-1,-1.631381,0.462133,0.693608,-0.183093,-0.303133,-0.021830
"2018-06-07 00:16:24.201 +0000",1528330584.200857,-0.092207,-0.762736,0.181491,-0.066566,0.690902,-0.719876,0.000000,0.000000,0.000000,-1,-1.740688,0.662786,0.678308,-0.216973,-0.312652,0.076917
"2018-06-07 00:16:24.211 +0000",1528330584.210930,-0.079348,-0.782629,0.188478,-0.056204,0.705146,-0.706830,0.000000,0.000000,0.000000,-1,-2.003302,0.825691,0.662173,-0.239603,-0.374198,0.333677
"2018-06-07 00:16:24.221 +0000",1528330584.221004,-0.066153,-0.804977,0.194789,-0.045819,0.720814,-0.691611,0.000000,0.000000,0.000000,-1,-2.152760,0.859728,0.561503,-0.314045,-0.454564,0.523353
"2018-06-07 00:16:24.231 +0000",1528330584.231077,-0.057694,-0.821386,0.197759,-0.039280,0.732091,-0.680073,0.000000,0.000000,0.000000,-1,-1.338671,0.507893,0.184291,-0.563412,-0.324071,-0.036846
"2018-06-07 00:16:24.241 +0000",1528330584.241150,-0.064988,-0.821485,0.192287,-0.044234,0.732158,-0.679696,0.000000,0.000000,0.000000,-1,0.394782,-0.646771,-0.545871,-0.935273,0.195744,-1.224830
"2018-06-07 00:16:24.251 +0000",1528330584.251224,-0.079505,-0.818663,0.188738,-0.054260,0.730233,-0.681039,0.000000,0.000000,0.000000,-1,-0.064566,-1.267227,-0.013104,-0.391800,1.042335,-1.781103
"2018-06-07 00:16:24.261 +0000",1528330584.261297,-0.076572,-0.830617,0.194817,-0.051591,0.738347,-0.672443,0.000000,0.000000,0.000000,-1,-1.377522,0.601627,0.581566,0.909532,1.910639,-0.527416
"2018-06-07 00:16:24.271 +0000",1528330584.271371,-0.050216,-0.850764,0.199843,-0.033099,0.751784,-0.658577,0.000000,0.000000,0.000000,-1,-2.138353,2.503819,0.397377,0.751467,2.111344,1.048195
"2018-06-07 00:16:24.281 +0000",1528330584.281444,-0.021580,-0.870154,0.205049,-0.013911,0.764428,-0.644558,0.000000,0.000000,0.000000,-1,-1.756260,2.355383,0.445550,0.321056,1.111136,0.593609
"2018-06-07 00:16:24.292 +0000",1528330584.291517,0.004104,-0.884247,0.214013,0.002601,0.773438,-0.633866,0.000000,0.000000,0.000000,-1,-1.305300,1.697261,0.615781,-0.153084,0.236404,0.160813
"2018-06-07 00:16:24.302 +0000",1528330584.301591,0.025543,-0.896272,0.223792,0.015950,0.781004,-0.624321,0.000000,0.000000,0.000000,-1,-1.134450,1.315893,0.572330,-0.443181,-0.359938,0.404717
"2018-06-07 00:16:24.312 +0000",1528330584.311664,0.044301,-0.906089,0.231278,0.027317,0.787097,-0.616222,0.000000,0.000000,0.000000,-1,-0.932305,1.299717,0.374977,-0.501301,-0.828250,0.343090
"2018-06-07 00:16:24.322 +0000",1528330584.321738,0.063558,-0.914978,0.236351,0.038732,0.792549,-0.608576,0.000000,0.000000,0.000000,-1,-0.929359,1.612115,0.226365,-0.301946,-1.036613,0.240107
"2018-06-07 00:16:24.332 +0000",1528330584.331811,0.087706,-0.928176,0.240510,0.052494,0.800528,-0.596991,0.000000,0.000000,0.000000,-1,-1.495334,2.232286,0.129430,-0.029545,-0.936408,0.593161
"2018-06-07 00:16:24.342 +0000",1528330584.341884,0.115849,-0.947406,0.245336,0.067480,0.811904,-0.579877,0.000000,0.000000,0.000000,-1,-1.976216,2.413366,0.084805,0.147150,-0.690001,0.790799
"2018-06-07 00:16:24.352 +0000",1528330584.351958,0.144456,-0.968543,0.249411,0.081550,0.824061,-0.560599,0.000000,0.000000,0.000000,-1,-2.150371,2.568430,-0.097204,0.117882,-0.269953,0.475486
"2018-06-07 00:16:24.362 +0000",1528330584.362031,0.171397,-0.989943,0.250891,0.093592,0.835995,-0.540695,0.000000,0.000000,0.000000,-1,-2.060618,2.479448,-0.284831,0.096365,0.231891,0.252808
"2018-06-07 00:16:24.372 +0000",1528330584.372105,0.190520,-1.006754,0.253170,0.101238,0.845101,-0.524932,0.000000,0.000000,0.000000,-1,-1.525204,1.408818,-0.119220,0.224705,0.935462,-0.078751
"2018-06-07 00:16:24.382 +0000",1528330584.382178,0.202471,-1.020487,0.259614,0.105160,0.852363,-0.512267,0.000000,0.000000,0.000000,-1,-1.361321,0.419114,0.135681,0.280155,1.452889,-0.117890
"2018-06-07 00:16:24.392 +0000",1528330584.392251,0.213693,-1.034726,0.273262,0.108317,0.859722,-0.499143,0.000000,0.000000,0.000000,-1,-1.588300,-0.143973,0.492752,0.413320,1.328113,0.016752
"2018-06-07 00:16:24.402 +0000",1528330584.402325,0.232142,-1.049450,0.294808,0.114582,0.867150,-0.484687,0.000000,0.000000,0.000000,-1,-1.670590,0.078515,0.786163,0.463604,0.650566,0.038382
"2018-06-07 00:16:24.412 +0000",1528330584.412398,0.258292,-1.063678,0.319483,0.124052,0.874148,-0.469548,0.000000,0.000000,0.000000,-1,-1.666110,0.593227,0.823147,0.246752,0.080351,0.046438
"2018-06-07 00:16:24.422 +0000",1528330584.422472,0.289781,-1.078388,0.344074,0.135084,0.881197,-0.453037,0.000000,0.000000,0.000000,-1,-1.673045,1.107458,0.705262,-0.008833,-0.181505,0.135288
"2018-06-07 00:16:24.433 +0000",1528330584.432545,0.322568,-1.092150,0.367976,0.146004,0.887619,-0.436822,0.000000,0.000000,0.000000,-1,-1.622064,1.122187,0.629893,-0.154793,-0.300568,0.108560
"2018-06-07 00:16:24.443 +0000",1528330584.442618,0.353044,-1.104696,0.391102,0.155384,0.893327,-0.421688,0.000000,0.000000,0.000000,-1,-1.476303,0.949499,0.545156,-0.186848,-0.257845,0.043651
"2018-06-07 00:16:24.453 +0000",1528330584.452692,0.380649,-1.115186,0.411474,0.163474,0.897992,-0.408515,0.000000,0.000000,0.000000,-1,-1.239220,0.930803,0.448828,-0.191672,-0.188535,-0.010018
"2018-06-07 00:16:24.463 +0000",1528330584.462765,0.408808,-1.124419,0.431281,0.171607,0.902017,-0.396125,0.000000,0.000000,0.000000,-1,-1.110215,1.073844,0.455403,-0.056480,-0.161722,0.009543
"2018-06-07 00:16:24.473 +0000",1528330584.472839,0.442191,-1.132728,0.453381,0.181519,0.905573,-0.383389,0.000000,0.000000,0.000000,-1,-1.160608,1.416924,0.546870,0.029189,-0.133173,0.091046
"2018-06-07 00:16:24.483 +0000",1528330584.482912,0.482329,-1.140823,0.480212,0.193351,0.908977,-0.369290,0.000000,0.000000,0.000000,-1,-1.235281,1.603905,0.673436,0.089639,-0.115367,0.096112
"2018-06-07 00:16:24.493 +0000",1528330584.492985,0.526583,-1.148502,0.510958,0.205985,0.912151,-0.354329,0.000000,0.000000,0.000000,-1,-1.289416,1.601248,0.747772,0.087640,-0.099376,0.066625
"2018-06-07 00:16:24.503 +0000",1528330584.503059,0.572384,-1.156397,0.544790,0.218084,0.915358,-0.338463,0.000000,0.000000,0.000000,-1,-1.358765,1.414323,0.774278,0.060953,-0.065108,0.054344
"2018-06-07 00:16:24.513 +0000",1528330584.513132,0.618114,-1.163662,0.581103,0.229469,0.918259,-0.322711,0.000000,0.000000,0.000000,-1,-1.414329,1.179180,0.789856,0.069085,-0.033707,0.062854
"2018-06-07 00:16:24.523 +0000",1528330584.523206,0.662919,-1.170376,0.618487,0.239893,0.920897,-0.307243,0.000000,0.000000,0.000000,-1,-1.397133,0.989428,0.762373,0.060339,-0.009658,0.066230
"2018-06-07 00:16:24.533 +0000",1528330584.533279,0.705725,-1.176424,0.655676,0.249204,0.923238,-0.292451,0.000000,0.000000,0.000000,-1,-1.360858,0.800922,0.712262,0.038287,-0.015828,0.048799
"2018-06-07 00:16:24.543 +0000",1528330584.543352,0.746958,-1.182540,0.692719,0.257206,0.925571,-0.277781,0.000000,0.000000,0.000000,-1,-1.342288,0.651990,0.637567,0.004513,-0.049243,0.066737
"2018-06-07 00:16:24.553 +0000",1528330584.553426,0.786789,-1.188182,0.729377,0.264362,0.927692,-0.263628,0.000000,0.000000,0.000000,-1,-1.357570,0.564338,0.586791,-0.030719,-0.091220,0.100603
"2018-06-07 00:16:24.563 +0000",1528330584.563499,0.826521,-1.193757,0.766417,0.270816,0.929759,-0.249410,0.000000,0.000000,0.000000,-1,-1.369627,0.519571,0.521074,-0.094882,-0.113902,0.122351
"2018-06-07 00:16:24.574 +0000",1528330584.573573,0.864020,-1.199537,0.801509,0.275884,0.931871,-0.235588,0.000000,0.000000,0.000000,-1,-1.310701,0.468745,0.376655,-0.218603,-0.078691,0.055321
"2018-06-07 00:16:24.584 +0000",1528330584.583646,0.897990,-1.205501,0.832739,0.279375,0.934018,-0.222615,0.000000,0.000000,0.000000,-1,-1.156301,0.486223,0.237594,-0.277864,-0.038159,-0.069148
"2018-06-07 00:16:24.594 +0000",1528330584.593719,0.928513,-1.210379,0.859114,0.282387,0.935750,-0.211253,0.000000,0.000000,0.000000,-1,-0.993139,0.620870,0.174149,-0.247582,0.003490,-0.112721
"2018-06-07 00:16:24.604 +0000",1528330584.603793,0.958247,-1.214333,0.883175,0.285513,0.937137,-0.200636,0.000000,0.000000,0.000000,-1,-0.881943,0.740822,0.177471,-0.184271,0.069684,-0.105791
"2018-06-07 00:16:24.614 +0000",1528330584.613866,0.987419,-1.217231,0.905572,0.288975,0.938144,-0.190725,0.000000,0.000000,0.000000,-1,-0.775126,0.839797,0.206556,-0.104970,0.121151,-0.110270
"2018-06-07 00:16:24.624 +0000",1528330584.623940,1.017557,-1.219578,0.927408,0.292717,0.938954,-0.180774,0.000000,0.000000,0.000000,-1,-0.702933,0.984826,0.225099,-0.020623,0.119685,-0.056638
"2018-06-07 00:16:24.634 +0000",1528330584.634013,1.046214,-1.221182,0.946955,0.296472,0.939505,-0.171557,0.000000,0.000000,0.000000,-1,-0.637613,1.019164,0.194931,0.020422,0.077570,-0.010816
"2018-06-07 00:16:24.644 +0000",1528330584.644086,1.072083,-1.222910,0.964343,0.299385,0.940096,-0.163055,0.000000,0.000000,0.000000,-1,-0.582296,0.920849,0.115996,0.059365,0.008788,-0.005601
"2018-06-07 00:16:24.654 +0000",1528330584.654160,1.093507,-1.225037,0.978335,0.301032,0.940818,-0.155685,0.000000,0.000000,0.000000,-1,-0.494136,0.778846,0.005665,0.077050,-0.032890,-0.003586
"2018-06-07 00:16:24.664 +0000",1528330584.664233,1.110772,-1.227903,0.989642,0.301259,0.941786,-0.149268,0.000000,0.000000,0.000000,-1,-0.410269,0.611519,-0.089670,0.096156,-0.052931,-0.030237
"2018-06-07 00:16:24.674 +0000",1528330584.674307,1.123790,-1.230806,0.997673,0.300709,0.942758,-0.144151,0.000000,0.000000,0.000000,-1,-0.356098,0.526329,-0.157808,0.104747,-0.063821,-0.049834
"2018-06-07 00:16:24.684 +0000",1528330584.684380,1.135124,-1.234057,1.004318,0.299544,0.943837,-0.139439,0.000000,0.000000,0.000000,-1,-0.331525,0.499165,-0.208498,0.100267,-0.062627,-0.076839
"2018-06-07 00:16:24.694 +0000",1528330584.694453,1.145999,-1.237486,1.010543,0.298092,0.944965,-0.134839,0.000000,0.000000,0.000000,-1,-0.325064,0.497073,-0.228956,0.096653,-0.053973,-0.097431
"2018-06-07 00:16:24.705 +0000",1528330584.704527,1.157233,-1.241233,1.017244,0.296344,0.946184,-0.130057,0.000000,0.000000,0.000000,-1,-0.313387,0.471912,-0.241964,0.057721,-0.029893,-0.106072
"2018-06-07 00:16:24.715 +0000",1528330584.714600,1.167483,-1.244713,1.022908,0.294630,0.947304,-0.125720,0.000000,0.000000,0.000000,-1,-0.300789,0.495009,-0.244077,0.035524,-0.014748,-0.114285
"2018-06-07 00:16:24.725 +0000",1528330584.724674,1.178347,-1.248309,1.028712,0.292829,0.948450,-0.121208,0.000000,0.000000,0.000000,-1,-0.312210,0.545573,-0.267568,0.048174,-0.006266,-0.120445
"2018-06-07 00:16:24.735 +0000",1528330584.734747,1.190351,-1.252409,1.034822,0.290650,0.949741,-0.116240,0.000000,0.000000,0.000000,-1,-0.337102,0.645625,-0.321002,0.049605,-0.008106,-0.114794
"2018-06-07 00:16:24.745 +0000",1528330584.744820,1.204647,-1.257521,1.042014,0.287746,0.951329,-0.110333,0.000000,0.000000,0.000000,-1,-0.371246,0.758941,-0.402343,0.043828,-0.020452,-0.076816
"2018-06-07 00:16:24.755 +0000",1528330584.754894,1.217078,-1.260769,1.047121,0.286195,0.952325,-0.105677,0.000000,0.000000,0.000000,-1,-0.414753,0.762446,-0.481831,0.033476,-0.023797,-0.052846
"2018-06-07 00:16:24.765 +0000",1528330584.764967,1.228951,-1.264568,1.052115,0.284019,0.953477,-0.101058,0.000000,0.000000,0.000000,-1,-0.466895,0.732850,-0.526975,0.037865,-0.002473,-0.046113
"2018-06-07 00:16:24.775 +0000",1528330584.775041,1.241432,-1.268822,1.057743,0.281417,0.954751,-0.096193,0.000000,0.000000,0.000000,-1,-0.524466,0.758060,-0.555812,0.046006,0.038260,-0.036101
"2018-06-07 00:16:24.785 +0000",1528330584.785114,1.255016,-1.274109,1.063877,0.277895,0.956310,-0.090792,0.000000,0.000000,0.000000,-1,-0.563177,0.839312,-0.585605,0.063658,0.088291,-0.046797
"2018-06-07 00:16:24.795 +0000",1528330584.795187,1.268502,-1.279998,1.069408,0.273713,0.958015,-0.085358,0.000000,0.000000,0.000000,-1,-0.549353,0.869098,-0.611366,0.068206,0.139244,-0.063598
"2018-06-07 00:16:24.805 +0000",1528330584.805261,1.280176,-1.285864,1.073462,0.269302,0.959681,-0.080545,0.000000,0.000000,0.000000,-1,-0.491263,0.811223,-0.646088,0.057236,0.187307,-0.112509
"2018-06-07 00:16:24.815 +0000",1528330584.815334,1.289419,-1.291864,1.075557,0.264498,0.961350,-0.076452,0.000000,0.000000,0.000000,-1,-0.398576,0.752311,-0.672287,0.047148,0.203430,-0.160136
"2018-06-07 00:16:24.825 +0000",1528330584.825407,1.301882,-1.299349,1.080734,0.258486,0.963384,-0.071236,0.000000,0.000000,0.000000,-1,-0.283081,0.737233,-0.665066,0.060881,0.205165,-0.190132
"2018-06-07 00:16:24.835 +0000",1528330584.835481,1.309233,-1.305862,1.081870,0.252936,0.965110,-0.067710,0.000000,0.000000,0.000000,-1,-0.173206,0.540712,-0.587367,0.093027,0.312829,-0.199838
"2018-06-07 00:16:24.846 +0000",1528330584.845554,1.311625,-1.310122,1.083358,0.249120,0.966216,-0.066050,0.000000,0.000000,0.000000,-1,-0.138934,-0.051983,-0.326712,0.405192,0.467484,-0.168081
"2018-06-07 00:16:24.856 +0000",1528330584.855628,1.307843,-1.312160,1.080427,0.246966,0.966740,-0.066480,0.000000,0.000000,0.000000,-1,0.106893,-0.036470,-0.198153,0.620557,0.447689,-0.001040
"2018-06-07 00:16:24.866 +0000",1528330584.865701,1.292146,-1.312656,1.062905,0.245431,0.966866,-0.070216,0.000000,0.000000,0.000000,-1,0.531713,0.136843,-0.145915,0.416969,0.278998,-0.114751
"2018-06-07 00:16:24.876 +0000",1528330584.875774,1.268863,-1.311492,1.038184,0.244804,0.966569,-0.076246,0.000000,0.000000,0.000000,-1,0.645544,0.022574,-0.046473,0.214119,0.201827,-0.280017
"2018-06-07 00:16:24.886 +0000",1528330584.885848,1.243346,-1.309638,1.013346,0.244476,0.966091,-0.083043,0.000000,0.000000,0.000000,-1,0.674978,-0.223358,-0.019289,-0.036270,0.240558,-0.264170
"2018-06-07 00:16:24.896 +0000",1528330584.895921,1.210046,-1.307419,0.983356,0.243581,0.965516,-0.091893,0.000000,0.000000,0.000000,-1,0.856281,-0.493792,-0.069970,-0.184254,0.258361,-0.358668
"2018-06-07 00:16:24.906 +0000",1528330584.905995,1.165103,-1.304903,0.942748,0.241438,0.964858,-0.103703,0.000000,0.000000,0.000000,-1,1.178708,-0.590089,-0.191461,-0.247099,0.239915,-0.381374
"2018-06-07 00:16:24.916 +0000",1528330584.916068,1.105581,-1.301114,0.887597,0.238106,0.963856,-0.119520,0.000000,0.000000,0.000000,-1,1.572346,-0.654451,-0.289358,-0.269158,0.240246,-0.361361
"2018-06-07 00:16:24.926 +0000",1528330584.926141,1.033455,-1.294718,0.821435,0.234166,0.962132,-0.139521,0.000000,0.000000,0.000000,-1,1.949632,-0.912492,-0.285594,-0.200047,0.247646,-0.375936
"2018-06-07 00:16:24.936 +0000",1528330584.936215,0.953010,-1.284610,0.750403,0.230114,0.959327,-0.163513,0.000000,0.000000,0.000000,-1,2.256100,-1.317052,-0.205724,-0.051357,0.206063,-0.369904
"2018-06-07 00:16:24.946 +0000",1528330584.946288,0.869878,-1.270978,0.680677,0.225716,0.955390,-0.190472,0.000000,0.000000,0.000000,-1,2.477551,-1.725111,-0.133199,0.103447,0.169549,-0.303806
"2018-06-07 00:16:24.956 +0000",1528330584.956362,0.786322,-1.254168,0.613561,0.220368,0.950291,-0.219961,0.000000,0.000000,0.000000,-1,2.664891,-2.003361,-0.148420,0.205734,0.169521,-0.205713
"2018-06-07 00:16:24.966 +0000",1528330584.966435,0.704242,-1.234852,0.549497,0.213439,0.944099,-0.251233,0.000000,0.000000,0.000000,-1,2.829438,-2.154095,-0.220228,0.262849,0.201927,-0.151813
"2018-06-07 00:16:24.977 +0000",1528330584.976508,0.625804,-1.213332,0.488607,0.204952,0.936787,-0.283589,0.000000,0.000000,0.000000,-1,2.985608,-2.059909,-0.325725,0.259129,0.228847,-0.132793
"2018-06-07 00:16:24.987 +0000",1528330584.986582,0.554722,-1.190109,0.432542,0.195701,0.928409,-0.315840,0.000000,0.000000,0.000000,-1,3.055210,-1.802551,-0.393977,0.214028,0.259854,-0.108873
"2018-06-07 00:16:24.997 +0000",1528330584.996655,0.493335,-1.166121,0.384377,0.186452,0.919230,-0.346771,0.000000,0.000000,0.000000,-1,2.936362,-1.648103,-0.392180,0.188716,0.284566,-0.057236
"2018-06-07 00:16:25.007 +0000",1528330585.006729,0.441237,-1.142792,0.345154,0.177252,0.909796,-0.375302,0.000000,0.000000,0.000000,-1,2.722765,-1.592889,-0.349580,0.169168,0.268595,-0.021961
"2018-06-07 00:16:25.017 +0000",1528330585.016802,0.397983,-1.120400,0.313280,0.168712,0.900275,-0.401298,0.000000,0.000000,0.000000,-1,2.532177,-1.359733,-0.316196,0.163578,0.208185,0.091758
"2018-06-07 00:16:25.027 +0000",1528330585.026875,0.362869,-1.099406,0.286990,0.161195,0.890938,-0.424552,0.000000,0.000000,0.000000,-1,2.338525,-1.089194,-0.298831,0.131667,0.136452,0.254447
"2018-06-07 00:16:25.037 +0000",1528330585.036949,0.332942,-1.079705,0.264860,0.154126,0.881819,-0.445689,0.000000,0.000000,0.000000,-1,2.136691,-1.019555,-0.285259,0.044345,0.104830,0.351497
"2018-06-07 00:16:25.047 +0000",1528330585.047022,0.305863,-1.061233,0.246314,0.146883,0.872958,-0.465154,0.000000,0.000000,0.000000,-1,1.984208,-1.096963,-0.251789,-0.081743,0.111478,0.365225
"2018-06-07 00:16:25.057 +0000",1528330585.057096,0.280737,-1.043223,0.230699,0.139484,0.864031,-0.483728,0.000000,0.000000,0.000000,-1,1.925103,-1.159889,-0.206660,-0.199894,0.136808,0.357278
"2018-06-07 00:16:25.067 +0000",1528330585.067169,0.257271,-1.025045,0.217263,0.132071,0.854738,-0.501975,0.000000,0.000000,0.000000,-1,1.972068,-1.190675,-0.163831,-0.278662,0.160308,0.328666
"2018-06-07 00:16:25.077 +0000",1528330585.077242,0.235104,-1.005182,0.204916,0.124842,0.844259,-0.521190,0.000000,0.000000,0.000000,-1,2.104200,-1.142096,-0.142480,-0.316600,0.187860,0.271602
"2018-06-07 00:16:25.087 +0000",1528330585.087316,0.214583,-0.983740,0.193523,0.117950,0.832575,-0.541207,0.000000,0.000000,0.000000,-1,2.246803,-1.075932,-0.118950,-0.308975,0.205770,0.235360
"2018-06-07 00:16:25.097 +0000",1528330585.097389,0.195975,-0.960974,0.183752,0.111522,0.819750,-0.561758,0.000000,0.000000,0.000000,-1,2.342959,-1.036383,-0.062046,-0.257197,0.218840,0.219382
"2018-06-07 00:16:25.107 +0000",1528330585.107462,0.179245,-0.937812,0.175564,0.105466,0.806265,-0.582075,0.000000,0.000000,0.000000,-1,2.399284,-0.988114,-0.016857,-0.209089,0.226205,0.226881
"2018-06-07 00:16:25.118 +0000",1528330585.117536,0.164511,-0.913675,0.168989,0.100037,0.791754,-0.602592,0.000000,0.000000,0.000000,-1,2.436624,-0.917974,0.035968,-0.163773,0.218851,0.203148
"2018-06-07 00:16:25.128 +0000",1528330585.127609,0.152234,-0.889161,0.164363,0.095547,0.776543,-0.622776,0.000000,0.000000,0.000000,-1,2.453749,-0.837048,0.121140,-0.110394,0.171394,0.179386
"2018-06-07 00:16:25.138 +0000",1528330585.137683,0.140864,-0.864510,0.160636,0.091121,0.760777,-0.642584,0.000000,0.000000,0.000000,-1,2.453794,-0.857891,0.117852,-0.150676,0.107692,0.189504
"2018-06-07 00:16:25.148 +0000",1528330585.147756,0.128121,-0.840597,0.157139,0.085225,0.745042,-0.661550,0.000000,0.000000,0.000000,-1,2.407954,-1.065401,0.094765,-0.188497,0.077956,0.228323
"2018-06-07 00:16:25.158 +0000",1528330585.157829,0.113292,-0.817146,0.154163,0.077361,0.729196,-0.679918,0.000000,0.000000,0.000000,-1,2.313791,-1.301605,0.076008,-0.165404,0.054221,0.284578
"2018-06-07 00:16:25.168 +0000",1528330585.167903,0.096816,-0.794243,0.151215,0.067745,0.713333,-0.697543,0.000000,0.000000,0.000000,-1,2.277629,-1.451851,0.016493,-0.135341,0.025589,0.313174
"2018-06-07 00:16:25.178 +0000",1528330585.177976,0.079190,-0.772059,0.147466,0.056678,0.697612,-0.714230,0.000000,0.000000,0.000000,-1,2.179793,-1.499961,-0.094214,-0.114509,-0.049541,0.353955
"2018-06-07 00:16:25.188 +0000",1528330585.188050,0.061186,-0.752226,0.143488,0.044648,0.683266,-0.728803,0.000000,0.000000,0.000000,-1,1.971210,-1.507993,-0.149693,-0.033570,-0.136772,0.423963
"2018-06-07 00:16:25.198 +0000",1528330585.198123,0.043797,-0.733815,0.140705,0.032514,0.669708,-0.741912,0.000000,0.000000,0.000000,-1,1.795381,-1.569121,-0.087081,0.045275,-0.175140,0.420715
"2018-06-07 00:16:25.208 +0000",1528330585.208196,0.026335,-0.716945,0.139058,0.019850,0.657085,-0.753555,0.000000,0.000000,0.000000,-1,1.635596,-1.637736,-0.061099,0.112154,-0.150828,0.377777
"2018-06-07 00:16:25.218 +0000",1528330585.218270,0.008797,-0.701755,0.137960,0.006718,0.645559,-0.763680,0.000000,0.000000,0.000000,-1,1.472774,-1.662363,-0.055420,0.147747,-0.137304,0.355935
"2018-06-07 00:16:25.228 +0000",1528330585.228343,-0.007434,-0.688166,0.137365,-0.005742,0.635122,-0.772390,0.000000,0.000000,0.000000,-1,1.361218,-1.548566,-0.040850,0.139730,-0.164190,0.327856
"2018-06-07 00:16:25.238 +0000",1528330585.238416,-0.023205,-0.675242,0.137062,-0.018111,0.625086,-0.780345,0.000000,0.000000,0.000000,-1,1.255176,-1.558724,-0.044939,0.097137,-0.164210,0.299098
"2018-06-07 00:16:25.248 +0000",1528330585.248489,-0.039507,-0.663562,0.136909,-0.031116,0.615927,-0.787188,0.000000,0.000000,0.000000,-1,1.127124,-1.619440,-0.049125,0.073794,-0.152639,0.307956
"2018-06-07 00:16:25.259 +0000",1528330585.258563,-0.055695,-0.653077,0.136718,-0.044211,0.607633,-0.792986,0.000000,0.000000,0.000000,-1,1.010651,-1.576866,-0.069172,0.029395,-0.152158,0.322237
"2018-06-07 00:16:25.269 +0000",1528330585.268636,-0.070932,-0.644170,0.136501,-0.056670,0.600535,-0.797588,0.000000,0.000000,0.000000,-1,0.880365,-1.474009,-0.076104,-0.026597,-0.173777,0.335124
"2018-06-07 00:16:25.279 +0000",1528330585.278709,-0.084897,-0.636340,0.136365,-0.068199,0.594256,-0.801379,0.000000,0.000000,0.000000,-1,0.739457,-1.342689,-0.071097,-0.062493,-0.208193,0.349765
"2018-06-07 00:16:25.289 +0000",1528330585.288784,-0.097288,-0.629890,0.136271,-0.078493,0.589056,-0.804271,0.000000,0.000000,0.000000,-1,0.599551,-1.187229,-0.062795,-0.101850,-0.230291,0.360255
"2018-06-07 00:16:25.299 +0000",1528330585.298856,-0.108011,-0.624889,0.136263,-0.087429,0.585007,-0.806301,0.000000,0.000000,0.000000,-1,0.457478,-1.021927,-0.046929,-0.128498,-0.245133,0.364300
"2018-06-07 00:16:25.309 +0000",1528330585.308929,-0.116652,-0.621657,0.136354,-0.094613,0.582383,-0.807389,0.000000,0.000000,0.000000,-1,0.316362,-0.803952,-0.025535,-0.134391,-0.248933,0.372697
"2018-06-07 00:16:25.319 +0000",1528330585.319004,-0.122613,-0.619759,0.136701,-0.099559,0.580839,-0.807907,0.000000,0.000000,0.000000,-1,0.144584,-0.548829,0.017551,-0.112233,-0.255125,0.382919
"2018-06-07 00:16:25.329 +0000",1528330585.329076,-0.126104,-0.619921,0.137468,-0.102367,0.580971,-0.807461,0.000000,0.000000,0.000000,-1,-0.059853,-0.344376,0.079926,-0.094486,-0.262688,0.369488
"2018-06-07 00:16:25.339 +0000",1528330585.339149,-0.127916,-0.622215,0.138617,-0.103660,0.582837,-0.805950,0.000000,0.000000,0.000000,-1,-0.265200,-0.217829,0.133471,-0.099877,-0.263043,0.315456
"2018-06-07 00:16:25.349 +0000",1528330585.349224,-0.128363,-0.626927,0.139955,-0.103668,0.586659,-0.803171,0.000000,0.000000,0.000000,-1,-0.465169,-0.093396,0.170862,-0.117203,-0.251744,0.259729
"2018-06-07 00:16:25.359 +0000",1528330585.359296,-0.127349,-0.633266,0.141500,-0.102378,0.591780,-0.799571,0.000000,0.000000,0.000000,-1,-0.657867,0.047488,0.216891,-0.115548,-0.242965,0.213328
"2018-06-07 00:16:25.369 +0000",1528330585.369370,-0.124785,-0.641480,0.143434,-0.099719,0.598382,-0.794981,0.000000,0.000000,0.000000,-1,-0.831687,0.166443,0.269266,-0.106961,-0.239373,0.176817
"2018-06-07 00:16:25.379 +0000",1528330585.379443,-0.120781,-0.651361,0.145726,-0.095819,0.606269,-0.789466,0.000000,0.000000,0.000000,-1,-0.987593,0.293168,0.313017,-0.109458,-0.234183,0.159094
"2018-06-07 00:16:25.390 +0000",1528330585.389516,-0.115201,-0.663023,0.148469,-0.090593,0.615502,-0.782911,0.000000,0.000000,0.000000,-1,-1.122482,0.418858,0.355642,-0.117155,-0.228677,0.152128
"2018-06-07 00:16:25.400 +0000",1528330585.399590,-0.108332,-0.675488,0.151586,-0.084377,0.625278,-0.775827,0.000000,0.000000,0.000000,-1,-1.224705,0.511747,0.388416,-0.111073,-0.222187,0.107431
"2018-06-07 00:16:25.410 +0000",1528330585.409663,-0.100264,-0.688707,0.155421,-0.077281,0.635540,-0.768190,0.000000,0.000000,0.000000,-1,-1.288251,0.576086,0.448984,-0.084569,-0.212505,0.003755
"2018-06-07 00:16:25.420 +0000",1528330585.419737,-0.090763,-0.702520,0.160541,-0.069177,0.646143,-0.760074,0.000000,0.000000,0.000000,-1,-1.343665,0.630414,0.546077,-0.029899,-0.208841,-0.086056
"2018-06-07 00:16:25.430 +0000",1528330585.429811,-0.079596,-0.717604,0.167059,-0.059903,0.657581,-0.750998,0.000000,0.000000,0.000000,-1,-1.447351,0.706598,0.634739,-0.011157,-0.198627,-0.096689
"2018-06-07 00:16:25.440 +0000",1528330585.439883,-0.066652,-0.734140,0.174680,-0.049446,0.669949,-0.740758,0.000000,0.000000,0.000000,-1,-1.658026,0.810023,0.701137,-0.043602,-0.202709,0.018956
"2018-06-07 00:16:25.450 +0000",1528330585.449957,-0.051881,-0.753583,0.183041,-0.037817,0.684256,-0.728260,0.000000,0.000000,0.000000,-1,-1.958696,0.925461,0.722599,-0.096140,-0.243140,0.257099
"2018-06-07 00:16:25.460 +0000",1528330585.460031,-0.036999,-0.774292,0.191376,-0.026445,0.699210,-0.714427,0.000000,0.000000,0.000000,-1,-2.023379,0.907949,0.667841,-0.203322,-0.264838,0.250254
"2018-06-07 00:16:25.470 +0000",1528330585.470104,-0.023120,-0.792783,0.197451,-0.016225,0.712310,-0.701677,0.000000,0.000000,0.000000,-1,-1.683239,0.957178,0.410126,-0.344141,-0.175521,0.001162
"2018-06-07 00:16:25.480 +0000",1528330585.480177,-0.012551,-0.807710,0.200012,-0.008674,0.722706,-0.691100,0.000000,0.000000,0.000000,-1,-1.451082,0.822794,0.148897,-0.451455,0.089290,-0.414643
"2018-06-07 00:16:25.490 +0000",1528330585.490251,-0.005110,-0.822170,0.200736,-0.003478,0.732625,-0.680623,0.000000,0.000000,0.000000,-1,-1.402793,0.653244,0.036426,-0.342195,0.457103,-0.598826
"2018-06-07 00:16:25.500 +0000",1528330585.500324,0.002772,-0.833634,0.200672,0.001863,0.740379,-0.672187,0.000000,0.000000,0.000000,-1,-1.068753,0.889236,0.003003,-0.198274,1.052804,-0.886850
"2018-06-07 00:16:25.510 +0000",1528330585.510397,0.019891,-0.846094,0.203699,0.013185,0.748697,-0.662781,0.000000,0.000000,0.000000,-1,-1.299566,1.709673,0.278056,0.241484,1.715033,-0.601959
"2018-06-07 00:16:25.520 +0000",1528330585.520471,0.047632,-0.860787,0.211570,0.031037,0.758356,-0.651101,0.000000,0.000000,0.000000,-1,-1.523409,2.259204,0.499599,0.516204,1.957129,0.257409
"2018-06-07 00:16:25.531 +0000",1528330585.530544,0.076406,-0.876209,0.221255,0.048857,0.768318,-0.638201,0.000000,0.000000,0.000000,-1,-1.559082,2.022983,0.523733,0.098985,1.275795,0.609163
"2018-06-07 00:16:25.541 +0000",1528330585.540617,0.099404,-0.889876,0.230676,0.062472,0.776994,-0.626400,0.000000,0.000000,0.000000,-1,-1.329994,1.388318,0.450370,-0.290042,0.162185,0.179897
"2018-06-07 00:16:25.551 +0000",1528330585.550692,0.115572,-0.900039,0.238819,0.071677,0.783351,-0.617432,0.000000,0.000000,0.000000,-1,-0.916285,0.900115,0.389918,-0.435492,-0.470455,-0.125045
"2018-06-07 00:16:25.561 +0000",1528330585.560764,0.131341,-0.907333,0.245405,0.080654,0.787864,-0.610544,0.000000,0.000000,0.000000,-1,-0.753931,1.159005,0.279507,-0.283077,-0.829521,0.078852
"2018-06-07 00:16:25.571 +0000",1528330585.570837,0.151236,-0.916104,0.250111,0.091739,0.793235,-0.601965,0.000000,0.000000,0.000000,-1,-0.977013,1.755132,0.122557,-0.093402,-0.970909,0.497350
"2018-06-07 00:16:25.581 +0000",1528330585.580911,0.175583,-0.929082,0.255008,0.104559,0.801071,-0.589366,0.000000,0.000000,0.000000,-1,-1.442257,2.082271,0.075094,-0.004599,-0.956985,0.691585
"2018-06-07 00:16:25.591 +0000",1528330585.590984,0.199251,-0.944536,0.260533,0.116014,0.810225,-0.574522,0.000000,0.000000,0.000000,-1,-1.520463,1.826451,0.032579,-0.021608,-0.763976,0.567732
"2018-06-07 00:16:25.601 +0000",1528330585.601058,0.217580,-0.959539,0.263413,0.123886,0.818927,-0.560366,0.000000,0.000000,0.000000,-1,-1.501276,1.525760,-0.240478,-0.149856,-0.437580,0.232256
"2018-06-07 00:16:25.611 +0000",1528330585.611131,0.228162,-0.976204,0.259530,0.126703,0.828377,-0.545653,0.000000,0.000000,0.000000,-1,-1.575370,1.315556,-0.687312,-0.206003,-0.037041,0.065673
"2018-06-07 00:16:25.621 +0000",1528330585.621204,0.231589,-0.993333,0.250604,0.125298,0.837850,-0.531326,0.000000,0.000000,0.000000,-1,-1.525157,0.978442,-0.892780,-0.061516,0.457331,0.025207
"2018-06-07 00:16:25.631 +0000",1528330585.631279,0.230095,-1.009708,0.243420,0.121358,0.846677,-0.518083,0.000000,0.000000,0.000000,-1,-1.443452,0.272842,-0.640092,0.148250,0.879443,-0.012251
"2018-06-07 00:16:25.641 +0000",1528330585.641351,0.232315,-1.025409,0.246514,0.119432,0.854927,-0.504813,0.000000,0.000000,0.000000,-1,-1.604251,-0.092403,-0.035198,0.320372,1.118157,-0.016061
"2018-06-07 00:16:25.651 +0000",1528330585.651424,0.246572,-1.041179,0.262095,0.123310,0.863001,-0.489923,0.000000,0.000000,0.000000,-1,-1.725344,0.182682,0.517685,0.429699,0.954275,0.006967
"2018-06-07 00:16:25.661 +0000",1528330585.661499,0.271992,-1.055729,0.283889,0.132336,0.870260,-0.474484,0.000000,0.000000,0.000000,-1,-1.640129,0.827671,0.693621,0.317494,0.476237,-0.010440
"2018-06-07 00:16:25.672 +0000",1528330585.671571,0.303503,-1.069030,0.305386,0.143746,0.876735,-0.458992,0.000000,0.000000,0.000000,-1,-1.477144,1.374099,0.602332,0.054435,0.093404,-0.004830
"2018-06-07 00:16:25.682 +0000",1528330585.681645,0.336293,-1.080602,0.324714,0.155358,0.882241,-0.444425,0.000000,0.000000,0.000000,-1,-1.345171,1.619767,0.483347,-0.115335,-0.136163,0.009519
"2018-06-07 00:16:25.692 +0000",1528330585.691719,0.369064,-1.091157,0.344187,0.166468,0.887161,-0.430387,0.000000,0.000000,0.000000,-1,-1.286280,1.485973,0.490353,-0.133753,-0.262436,0.041761
"2018-06-07 00:16:25.702 +0000",1528330585.701791,0.400990,-1.101012,0.364076,0.176700,0.891666,-0.416784,0.000000,0.000000,0.000000,-1,-1.223971,1.410546,0.455570,-0.101123,-0.261325,0.076238
"2018-06-07 00:16:25.712 +0000",1528330585.711865,0.432497,-1.110264,0.383003,0.186276,0.895816,-0.403504,0.000000,0.000000,0.000000,-1,-1.117533,1.464854,0.402778,-0.100507,-0.229007,0.081177
"2018-06-07 00:16:25.722 +0000",1528330585.721939,0.465310,-1.118259,0.401929,0.196193,0.899341,-0.390762,0.000000,0.000000,0.000000,-1,-1.067284,1.612080,0.406318,-0.039836,-0.208179,0.070434
"2018-06-07 00:16:25.732 +0000",1528330585.732013,0.501297,-1.125936,0.422742,0.206802,0.902671,-0.377384,0.000000,0.000000,0.000000,-1,-1.109783,1.736908,0.454107,-0.000411,-0.182685,0.061771
"2018-06-07 00:16:25.742 +0000",1528330585.742085,0.541093,-1.133890,0.447338,0.217947,0.906065,-0.362691,0.000000,0.000000,0.000000,-1,-1.247971,1.742789,0.530811,0.039484,-0.147429,0.044942
"2018-06-07 00:16:25.752 +0000",1528330585.752158,0.586143,-1.142799,0.478188,0.229585,0.909799,-0.345769,0.000000,0.000000,0.000000,-1,-1.430551,1.641857,0.656786,0.083693,-0.098260,0.053548
"2018-06-07 00:16:25.762 +0000",1528330585.762232,0.631307,-1.150874,0.512122,0.240618,0.913121,-0.329110,0.000000,0.000000,0.000000,-1,-1.444052,1.329975,0.675271,0.081739,-0.041203,0.008096
"2018-06-07 00:16:25.772 +0000",1528330585.772305,0.673075,-1.157991,0.545842,0.250093,0.915999,-0.313687,0.000000,0.000000,0.000000,-1,-1.361526,1.003226,0.637560,0.060331,-0.008315,0.001660
