timestamp,timeIntervalSince1970,attitude.roll,attitude.pitch,attitude.yaw,gravity.x,gravity.y,gravity.z,magneticField.x,magneticField.y,magneticField.z,magneticField.accuracy,rotationRate.x,rotationRate.y,rotationRate.z,userAcceleration.x,userAcceleration.y,userAcceleration.z
"2018-06-07 00:19:25.456 +0000",1528330765.456353,-0.108396,0.429911,0.045325,-0.098339,-0.416790,-0.903668,0.000000,0.000000,0.000000,-1,-0.595819,-0.272964,-0.027280,-0.037281,0.023663,0.033902
"2018-06-07 00:19:25.466 +0000",1528330765.466427,-0.110313,0.423619,0.044192,-0.100358,-0.411062,-0.906066,0.000000,0.000000,0.000000,-1,-0.644124,-0.224766,-0.034559,-0.022429,0.033666,0.019607
"2018-06-07 00:19:25.477 +0000",1528330765.476500,-0.111642,0.416980,0.043024,-0.101864,-0.405001,-0.908624,0.000000,0.000000,0.000000,-1,-0.672574,-0.165584,-0.030019,-0.034977,0.063677,0.010584
"2018-06-07 00:19:25.487 +0000",1528330765.486574,-0.112180,0.410120,0.041917,-0.102662,-0.398719,-0.911309,0.000000,0.000000,0.000000,-1,-0.690600,-0.067975,-0.020013,-0.030792,0.090385,0.001061
"2018-06-07 00:19:25.497 +0000",1528330765.496647,-0.111404,0.402996,0.041031,-0.102268,-0.392176,-0.914188,0.000000,0.000000,0.000000,-1,-0.720356,0.076734,0.007367,-0.017056,0.084406,0.003635
"2018-06-07 00:19:25.507 +0000",1528330765.506721,-0.109369,0.395355,0.040327,-0.100732,-0.385135,-0.917346,0.000000,0.000000,0.000000,-1,-0.776257,0.204957,0.021852,-0.013816,0.053501,0.020770
"2018-06-07 00:19:25.517 +0000",1528330765.516794,-0.106379,0.387020,0.039634,-0.098325,-0.377431,-0.920803,0.000000,0.000000,0.000000,-1,-0.846760,0.287065,0.028706,-0.027071,0.031438,0.050762
"2018-06-07 00:19:25.527 +0000",1528330765.526867,-0.103325,0.377967,0.038810,-0.095861,-0.369031,-0.924460,0.000000,0.000000,0.000000,-1,-0.918043,0.260583,0.013733,-0.063319,0.031278,0.062979
"2018-06-07 00:19:25.537 +0000",1528330765.536941,-0.100617,0.368275,0.037521,-0.093712,-0.360006,-0.928231,0.000000,0.000000,0.000000,-1,-0.986948,0.213390,-0.034650,-0.097175,0.060492,0.081216
"2018-06-07 00:19:25.547 +0000",1528330765.547014,-0.098204,0.357925,0.035751,-0.091833,-0.350332,-0.932113,0.000000,0.000000,0.000000,-1,-1.052830,0.160645,-0.065847,-0.105936,0.075933,0.102187
"2018-06-07 00:19:25.557 +0000",1528330765.557088,-0.096525,0.347120,0.034113,-0.090627,-0.340191,-0.935979,0.000000,0.000000,0.000000,-1,-1.089767,0.093448,-0.034764,-0.074611,0.055233,0.080175
"2018-06-07 00:19:25.567 +0000",1528330765.567161,-0.095943,0.336184,0.033398,-0.090434,-0.329887,-0.939679,0.000000,0.000000,0.000000,-1,-1.079922,-0.002440,0.062818,-0.018316,0.036979,0.048123
"2018-06-07 00:19:25.577 +0000",1528330765.577235,-0.096968,0.325923,0.033972,-0.091719,-0.320183,-0.942905,0.000000,0.000000,0.000000,-1,-0.980987,-0.089396,0.183887,-0.000001,0.076272,-0.046887
"2018-06-07 00:19:25.587 +0000",1528330765.587308,-0.097110,0.316870,0.036502,-0.092131,-0.311594,-0.945738,0.000000,0.000000,0.000000,-1,-0.832471,0.139653,0.374602,-0.013979,0.168741,-0.108613
"2018-06-07 00:19:25.597 +0000",1528330765.597382,-0.094030,0.309280,0.041603,-0.089437,-0.304373,-0.948345,0.000000,0.000000,0.000000,-1,-0.660341,0.589236,0.608931,0.046850,0.229757,-0.148441
"2018-06-07 00:19:25.607 +0000",1528330765.607455,-0.085778,0.303267,0.049332,-0.081763,-0.298639,-0.950857,0.000000,0.000000,0.000000,-1,-0.489432,1.205671,0.844823,0.151282,0.185679,-0.083750
"2018-06-07 00:19:25.618 +0000",1528330765.617528,-0.127250,0.313463,0.076137,-0.120723,-0.308354,-0.943580,0.000000,0.000000,0.000000,-1,-0.459192,1.691053,1.087110,0.208934,0.089421,0.034431
"2018-06-07 00:19:25.628 +0000",1528330765.627602,-0.111142,0.306217,0.088052,-0.105754,-0.301454,-0.947598,0.000000,0.000000,0.000000,-1,-0.639182,2.041239,1.230526,0.105876,0.044480,0.160870
"2018-06-07 00:19:25.638 +0000",1528330765.637675,-0.092925,0.295942,0.100155,-0.088758,-0.291641,-0.952401,0.000000,0.000000,0.000000,-1,-0.990172,2.175262,1.237098,-0.041537,0.062424,0.245232
"2018-06-07 00:19:25.648 +0000",1528330765.647749,-0.074966,0.282933,0.110724,-0.071918,-0.279173,-0.957544,0.000000,0.000000,0.000000,-1,-1.255377,2.040291,1.047999,-0.203106,0.112227,0.169992
"2018-06-07 00:19:25.658 +0000",1528330765.657822,-0.057432,0.269609,0.117724,-0.055327,-0.266355,-0.962286,0.000000,0.000000,0.000000,-1,-1.259468,1.897078,0.640998,-0.342546,0.189496,0.028387
"2018-06-07 00:19:25.668 +0000",1528330765.667896,-0.040125,0.258416,0.119834,-0.038783,-0.255550,-0.966018,0.000000,0.000000,0.000000,-1,-1.030602,1.725312,0.129043,-0.355871,0.241008,-0.094193
"2018-06-07 00:19:25.678 +0000",1528330765.677969,-0.023859,0.250485,0.117671,-0.023113,-0.247874,-0.968517,0.000000,0.000000,0.000000,-1,-0.716460,1.504992,-0.266003,-0.224263,0.185389,-0.166737
"2018-06-07 00:19:25.688 +0000",1528330765.688043,-0.008552,0.244817,0.113525,-0.008297,-0.242379,-0.970146,0.000000,0.000000,0.000000,-1,-0.536680,1.405112,-0.412993,-0.021809,0.100258,-0.124077
"2018-06-07 00:19:25.698 +0000",1528330765.698116,0.006891,0.239556,0.109531,0.006694,-0.237271,-0.971420,0.000000,0.000000,0.000000,-1,-0.528733,1.457606,-0.360152,0.128469,0.050778,-0.009979
"2018-06-07 00:19:25.708 +0000",1528330765.708190,0.023090,0.233419,0.107259,0.022462,-0.231306,-0.972622,0.000000,0.000000,0.000000,-1,-0.641585,1.597052,-0.179855,0.126601,0.071134,0.051266
"2018-06-07 00:19:25.718 +0000",1528330765.718263,0.041214,0.225589,0.106946,0.040158,-0.223681,-0.973835,0.000000,0.000000,0.000000,-1,-0.821605,1.867043,-0.022689,0.031100,0.175295,0.074207
"2018-06-07 00:19:25.728 +0000",1528330765.728336,0.061941,0.216334,0.107822,0.060459,-0.214651,-0.974818,0.000000,0.000000,0.000000,-1,-0.949535,2.134224,0.053676,0.000851,0.247686,0.089549
"2018-06-07 00:19:25.738 +0000",1528330765.738410,0.083340,0.206226,0.109610,0.081479,-0.204767,-0.975414,0.000000,0.000000,0.000000,-1,-1.031921,2.146924,0.111987,0.032824,0.197687,0.061656
"2018-06-07 00:19:25.748 +0000",1528330765.748483,0.099992,0.196248,0.112032,0.097909,-0.194991,-0.975906,0.000000,0.000000,0.000000,-1,-0.980125,1.450901,0.155021,0.043402,0.152983,0.002899
"2018-06-07 00:19:25.759 +0000",1528330765.758557,0.102179,0.187952,0.114653,0.100205,-0.186848,-0.977265,0.000000,0.000000,0.000000,-1,-0.812769,-0.128378,0.167253,0.067047,0.129749,-0.021224
"2018-06-07 00:19:25.769 +0000",1528330765.768631,0.093797,0.178456,0.116916,0.092172,-0.177510,-0.979793,0.000000,0.000000,0.000000,-1,-1.049033,-0.920331,0.120314,0.035864,0.123585,0.152400
"2018-06-07 00:19:25.779 +0000",1528330765.778704,0.077347,0.158755,0.121249,0.076298,-0.158089,-0.984473,0.000000,0.000000,0.000000,-1,-1.527835,-0.845270,0.228117,0.011608,0.138985,0.331168
"2018-06-07 00:19:25.789 +0000",1528330765.788777,0.069717,0.140883,0.125474,0.068971,-0.140417,-0.987687,0.000000,0.000000,0.000000,-1,-1.868740,-0.679596,0.285314,0.003600,0.167776,0.300416
"2018-06-07 00:19:25.799 +0000",1528330765.798851,0.061525,0.122400,0.128426,0.061026,-0.122094,-0.990641,0.000000,0.000000,0.000000,-1,-1.809596,-0.792908,0.120275,-0.037176,0.183847,0.016443
"2018-06-07 00:19:25.809 +0000",1528330765.808924,0.054054,0.106388,0.129266,0.053723,-0.106188,-0.992894,0.000000,0.000000,0.000000,-1,-1.513257,-0.707959,-0.045806,-0.042584,0.123125,-0.160320
"2018-06-07 00:19:25.819 +0000",1528330765.818998,0.042604,0.088651,0.129098,0.042424,-0.088535,-0.995169,0.000000,0.000000,0.000000,-1,-1.179571,-0.662699,-0.146474,0.014964,0.061862,-0.240518
"2018-06-07 00:19:25.829 +0000",1528330765.829071,0.036926,0.079239,0.127276,0.036801,-0.079156,-0.996183,0.000000,0.000000,0.000000,-1,-0.847037,-0.546106,-0.242628,0.024203,0.054208,-0.257556
"2018-06-07 00:19:25.839 +0000",1528330765.839144,0.032916,0.072697,0.124198,0.032823,-0.072633,-0.996818,0.000000,0.000000,0.000000,-1,-0.571149,-0.369222,-0.355688,0.023375,0.055207,-0.221169
"2018-06-07 00:19:25.849 +0000",1528330765.849218,0.031067,0.068654,0.119609,0.030989,-0.068600,-0.997163,0.000000,0.000000,0.000000,-1,-0.331772,-0.170336,-0.504097,0.033510,0.071866,-0.184112
"2018-06-07 00:19:25.859 +0000",1528330765.859291,0.028094,0.061393,0.113958,0.028037,-0.061354,-0.997722,0.000000,0.000000,0.000000,-1,-0.194638,0.100559,-0.614414,0.051827,0.075591,-0.142064
"2018-06-07 00:19:25.869 +0000",1528330765.869365,0.032721,0.059621,0.107197,0.032657,-0.059585,-0.997689,0.000000,0.000000,0.000000,-1,-0.147177,0.529150,-0.692874,0.066174,0.074020,-0.070579
"2018-06-07 00:19:25.879 +0000",1528330765.879438,0.041584,0.057958,0.099717,0.041502,-0.057925,-0.997458,0.000000,0.000000,0.000000,-1,-0.133347,0.927981,-0.764889,0.094851,0.074374,-0.041498
"2018-06-07 00:19:25.890 +0000",1528330765.889512,0.053712,0.056390,0.091648,0.053601,-0.056360,-0.996971,0.000000,0.000000,0.000000,-1,-0.115387,1.237819,-0.816736,0.120257,0.077127,-0.027260
"2018-06-07 00:19:25.900 +0000",1528330765.899585,0.067147,0.050307,0.083583,0.067012,-0.050286,-0.996484,0.000000,0.000000,0.000000,-1,-0.148296,1.613170,-0.817720,0.147435,0.064782,0.019296
"2018-06-07 00:19:25.910 +0000",1528330765.909659,0.087450,0.047342,0.076056,0.087241,-0.047324,-0.995063,0.000000,0.000000,0.000000,-1,-0.276432,2.117479,-0.743891,0.198221,0.051368,0.101340
"2018-06-07 00:19:25.920 +0000",1528330765.919732,0.113578,0.041956,0.069965,0.113234,-0.041943,-0.992683,0.000000,0.000000,0.000000,-1,-0.547819,2.696954,-0.626490,0.254610,0.055020,0.222984
"2018-06-07 00:19:25.930 +0000",1528330765.929805,0.142720,0.032791,0.065652,0.142160,-0.032785,-0.989301,0.000000,0.000000,0.000000,-1,-0.959611,2.914871,-0.508743,0.287802,0.070963,0.352139
"2018-06-07 00:19:25.940 +0000",1528330765.939879,0.172590,0.015784,0.064043,0.171713,-0.015784,-0.985021,0.000000,0.000000,0.000000,-1,-1.517741,3.065196,-0.338152,0.285898,0.069067,0.454381
"2018-06-07 00:19:25.950 +0000",1528330765.949952,0.204078,-0.004025,0.065615,0.202663,0.004025,-0.979240,0.000000,0.000000,0.000000,-1,-2.099878,3.127669,-0.176366,0.265660,0.065387,0.461052
"2018-06-07 00:19:25.960 +0000",1528330765.960026,0.235661,-0.027525,0.070136,0.233397,0.027522,-0.971992,0.000000,0.000000,0.000000,-1,-2.441282,3.127220,-0.033600,0.267290,0.063268,0.346382
"2018-06-07 00:19:25.970 +0000",1528330765.970099,0.266654,-0.051768,0.077368,0.263152,0.051745,-0.963366,0.000000,0.000000,0.000000,-1,-2.519191,3.009906,0.141567,0.263627,0.037321,0.190065
"2018-06-07 00:19:25.980 +0000",1528330765.980173,0.296605,-0.076838,0.087057,0.291413,0.076763,-0.953512,0.000000,0.000000,0.000000,-1,-2.484601,2.787525,0.315096,0.260315,0.002003,0.080862
"2018-06-07 00:19:25.990 +0000",1528330765.990246,0.323796,-0.098864,0.098479,0.316614,0.098703,-0.943405,0.000000,0.000000,0.000000,-1,-2.403361,2.542448,0.434669,0.257529,0.003042,0.034195
"2018-06-07 00:19:26.000 +0000",1528330766.000320,0.349886,-0.119159,0.111028,0.340360,0.118878,-0.932750,0.000000,0.000000,0.000000,-1,-2.278930,2.431556,0.521189,0.226748,0.037037,0.010769
"2018-06-07 00:19:26.010 +0000",1528330766.010393,0.375147,-0.137758,0.124253,0.362938,0.137323,-0.921639,0.000000,0.000000,0.000000,-1,-2.158437,2.304322,0.575401,0.214882,0.083167,-0.020149
"2018-06-07 00:19:26.020 +0000",1528330766.020467,0.400228,-0.156069,0.138107,0.384893,0.155436,-0.909778,0.000000,0.000000,0.000000,-1,-2.046089,2.090438,0.606790,0.206721,0.139639,-0.041088
"2018-06-07 00:19:26.031 +0000",1528330766.030540,0.421696,-0.172248,0.151941,0.403251,0.171398,-0.898894,0.000000,0.000000,0.000000,-1,-2.013214,1.860050,0.594213,0.190255,0.150944,-0.016312
"2018-06-07 00:19:26.041 +0000",1528330766.040613,0.443070,-0.188780,0.166144,0.421098,0.187660,-0.887389,0.000000,0.000000,0.000000,-1,-2.100196,1.895062,0.564396,0.191664,0.115715,0.095916
"2018-06-07 00:19:26.051 +0000",1528330766.050687,0.466665,-0.206335,0.181417,0.440367,0.204874,-0.874130,0.000000,0.000000,0.000000,-1,-2.260157,2.100936,0.579344,0.227388,0.070456,0.211303
"2018-06-07 00:19:26.061 +0000",1528330766.060760,0.493884,-0.224861,0.198880,0.462115,0.222971,-0.858332,0.000000,0.000000,0.000000,-1,-2.396686,2.297692,0.689945,0.282163,0.035116,0.242472
"2018-06-07 00:19:26.071 +0000",1528330766.070834,0.522258,-0.242126,0.218758,0.484287,0.239767,-0.841414,0.000000,0.000000,0.000000,-1,-2.434074,2.364770,0.899977,0.303784,-0.000814,0.175276
"2018-06-07 00:19:26.081 +0000",1528330766.080907,0.551053,-0.257352,0.241083,0.506342,0.254521,-0.823915,0.000000,0.000000,0.000000,-1,-2.379038,2.286023,1.128734,0.281866,-0.037266,0.078493
"2018-06-07 00:19:26.091 +0000",1528330766.090981,0.579804,-0.270316,0.265010,0.527965,0.267036,-0.806191,0.000000,0.000000,0.000000,-1,-2.292966,2.227447,1.280032,0.245396,-0.030983,0.061181
"2018-06-07 00:19:26.101 +0000",1528330766.101054,0.609753,-0.281622,0.289817,0.550105,0.277914,-0.787495,0.000000,0.000000,0.000000,-1,-2.228313,2.284486,1.333833,0.267370,0.028665,0.102650
"2018-06-07 00:19:26.111 +0000",1528330766.111128,0.639229,-0.292456,0.313624,0.571246,0.288305,-0.768478,0.000000,0.000000,0.000000,-1,-2.188004,2.232667,1.151805,0.186475,0.130046,0.091796
"2018-06-07 00:19:26.121 +0000",1528330766.121201,0.666734,-0.303108,0.335700,0.590231,0.298487,-0.750022,0.000000,0.000000,0.000000,-1,-2.072131,2.032749,0.996066,0.131327,0.129766,0.055289
"2018-06-07 00:19:26.131 +0000",1528330766.131275,0.691710,-0.311698,0.356479,0.607120,0.306675,-0.733046,0.000000,0.000000,0.000000,-1,-1.833533,1.799560,1.002370,0.151837,0.029690,-0.059160
"2018-06-07 00:19:26.141 +0000",1528330766.141348,0.715017,-0.318025,0.376531,0.622753,0.312691,-0.717218,0.000000,0.000000,0.000000,-1,-1.683540,1.664770,1.045736,0.157719,-0.061486,-0.100333
"2018-06-07 00:19:26.151 +0000",1528330766.151421,0.737798,-0.324585,0.397277,0.637536,0.318915,-0.701313,0.000000,0.000000,0.000000,-1,-1.848102,1.600794,1.009355,0.138023,-0.145392,-0.005748
"2018-06-07 00:19:26.161 +0000",1528330766.161495,0.762682,-0.334705,0.419952,0.652525,0.328491,-0.682865,0.000000,0.000000,0.000000,-1,-2.319487,1.827531,0.816402,0.109072,-0.170638,0.175495
"2018-06-07 00:19:26.172 +0000",1528330766.171568,0.794458,-0.350473,0.445903,0.670112,0.343342,-0.658078,0.000000,0.000000,0.000000,-1,-2.998769,2.456817,0.564861,0.096933,-0.168125,0.351330
"2018-06-07 00:19:26.182 +0000",1528330766.181642,0.833023,-0.371649,0.476613,0.689450,0.363153,-0.626720,0.000000,0.000000,0.000000,-1,-3.672169,2.812404,0.401788,0.206958,-0.145990,0.279781
"2018-06-07 00:19:26.192 +0000",1528330766.191715,0.876380,-0.394538,0.511833,0.709392,0.384382,-0.590773,0.000000,0.000000,0.000000,-1,-3.988816,3.071558,0.434461,0.389195,-0.105543,0.054152
"2018-06-07 00:19:26.202 +0000",1528330766.201789,0.924441,-0.414898,0.549402,0.730555,0.403097,-0.551181,0.000000,0.000000,0.000000,-1,-3.898907,3.370853,0.588943,0.399007,-0.063406,-0.053616
"2018-06-07 00:19:26.212 +0000",1528330766.211862,0.975024,-0.430286,0.586609,0.752266,0.417130,-0.509997,0.000000,0.000000,0.000000,-1,-3.520196,3.538030,0.764968,0.327538,-0.049409,-0.205960
"2018-06-07 00:19:26.222 +0000",1528330766.221936,1.025182,-0.440217,0.620696,0.773310,0.426135,-0.469466,0.000000,0.000000,0.000000,-1,-2.973516,3.530466,0.836837,0.287511,-0.074786,-0.317414
"2018-06-07 00:19:26.232 +0000",1528330766.232009,1.071514,-0.445433,0.650344,0.792262,0.430848,-0.432076,0.000000,0.000000,0.000000,-1,-2.434964,3.256134,0.905799,0.273504,-0.061570,-0.348319
"2018-06-07 00:19:26.242 +0000",1528330766.242082,1.111933,-0.446092,0.676921,0.808819,0.431444,-0.399584,0.000000,0.000000,0.000000,-1,-2.066175,2.722859,1.092716,0.317356,-0.105104,-0.281889
"2018-06-07 00:19:26.252 +0000",1528330766.252156,1.146171,-0.442612,0.702777,0.823387,0.428301,-0.372279,0.000000,0.000000,0.000000,-1,-1.928203,2.167642,1.385512,0.372231,-0.140551,-0.216100
"2018-06-07 00:19:26.262 +0000",1528330766.262229,1.176157,-0.434990,0.730204,0.837167,0.421402,-0.348671,0.000000,0.000000,0.000000,-1,-1.983253,1.704804,1.772599,0.419456,-0.142273,-0.158974
"2018-06-07 00:19:26.272 +0000",1528330766.272303,1.202482,-0.423977,0.759771,0.850333,0.411389,-0.328164,0.000000,0.000000,0.000000,-1,-2.098608,1.295953,2.072855,0.385675,-0.126385,-0.162100
"2018-06-07 00:19:26.282 +0000",1528330766.282376,1.225860,-0.410741,0.790334,0.862821,0.399289,-0.310012,0.000000,0.000000,0.000000,-1,-2.142635,1.037195,2.230323,0.285342,-0.116513,-0.204346
"2018-06-07 00:19:26.292 +0000",1528330766.292450,1.247364,-0.396212,0.819847,0.874696,0.385927,-0.293200,0.000000,0.000000,0.000000,-1,-2.035504,0.982574,2.237448,0.181823,-0.103914,-0.246991
"2018-06-07 00:19:26.303 +0000",1528330766.302523,1.268011,-0.381591,0.846415,0.885854,0.372398,-0.276733,0.000000,0.000000,0.000000,-1,-1.811773,1.077134,2.087696,0.060069,-0.063987,-0.269532
"2018-06-07 00:19:26.313 +0000",1528330766.312597,1.287745,-0.367536,0.868836,0.896080,0.359317,-0.260635,0.000000,0.000000,0.000000,-1,-1.499405,1.161179,1.886080,0.001412,-0.043934,-0.304383
"2018-06-07 00:19:26.323 +0000",1528330766.322670,1.305761,-0.353622,0.886974,0.905368,0.346298,-0.245735,0.000000,0.000000,0.000000,-1,-1.168629,1.143949,1.761564,0.026090,-0.030044,-0.295235
"2018-06-07 00:19:26.333 +0000",1528330766.332744,1.321671,-0.339228,0.902015,0.913899,0.332759,-0.232505,0.000000,0.000000,0.000000,-1,-0.948834,1.043662,1.738181,0.073726,-0.021770,-0.239846
"2018-06-07 00:19:26.343 +0000",1528330766.342817,1.335667,-0.323947,0.915750,0.921901,0.318311,-0.220851,0.000000,0.000000,0.000000,-1,-0.881963,0.911857,1.800031,0.096089,-0.060224,-0.150074
"2018-06-07 00:19:26.353 +0000",1528330766.352890,1.348444,-0.308366,0.929442,0.929373,0.303503,-0.210122,0.000000,0.000000,0.000000,-1,-0.919596,0.829474,1.786970,0.037897,-0.063100,-0.056708
"2018-06-07 00:19:26.363 +0000",1528330766.362964,1.360385,-0.293468,0.943154,0.936134,0.289274,-0.199933,0.000000,0.000000,0.000000,-1,-0.960888,0.766049,1.700829,-0.005088,-0.037611,0.002652
"2018-06-07 00:19:26.373 +0000",1528330766.373037,1.372056,-0.279193,0.956622,0.942356,0.275580,-0.189789,0.000000,0.000000,0.000000,-1,-0.969913,0.810191,1.639666,0.033963,-0.013572,0.015931
"2018-06-07 00:19:26.383 +0000",1528330766.383111,1.386281,-0.264574,0.970143,0.948819,0.261498,-0.177086,0.000000,0.000000,0.000000,-1,-1.000003,1.144730,1.686961,0.098987,0.031532,0.110299
"2018-06-07 00:19:26.393 +0000",1528330766.393184,1.410194,-0.250918,0.975033,0.956218,0.248293,-0.154905,0.000000,0.000000,0.000000,-1,0.298052,2.818875,1.227406,-0.138393,0.240141,-0.163088
"2018-06-07 00:19:26.403 +0000",1528330766.403258,1.443709,-0.240104,0.962979,0.963479,0.237804,-0.123110,0.000000,0.000000,0.000000,-1,1.390226,3.663192,0.872398,-0.662393,0.487950,-1.037321
"2018-06-07 00:19:26.413 +0000",1528330766.413332,1.474494,-0.230065,0.956702,0.969140,0.228041,-0.093620,0.000000,0.000000,0.000000,-1,0.449353,3.020368,0.922163,-0.158852,-0.132277,0.014945
"2018-06-07 00:19:26.423 +0000",1528330766.423405,1.498157,-0.222091,0.957220,0.972866,0.220270,-0.070793,0.000000,0.000000,0.000000,-1,-0.045156,2.071282,0.739826,-0.247158,-0.073190,-0.073006
"2018-06-07 00:19:26.433 +0000",1528330766.433478,1.510700,-0.216049,0.957359,0.974988,0.214372,-0.058664,0.000000,0.000000,0.000000,-1,0.062321,0.969083,0.557817,-0.403714,0.080123,-0.674124
"2018-06-07 00:19:26.444 +0000",1528330766.443552,1.514016,-0.211577,0.957058,0.976125,0.210002,-0.055484,0.000000,0.000000,0.000000,-1,0.033774,0.146293,0.410276,-0.533391,0.010579,-0.495785
"2018-06-07 00:19:26.454 +0000",1528330766.453625,1.511965,-0.208335,0.957513,0.976683,0.206831,-0.057526,0.000000,0.000000,0.000000,-1,-0.037391,-0.292527,0.294069,-0.579711,0.123583,-0.272156
"2018-06-07 00:19:26.464 +0000",1528330766.463698,1.508681,-0.206331,0.957619,0.976901,0.204870,-0.060759,0.000000,0.000000,0.000000,-1,0.026648,-0.319252,0.164767,-0.462283,0.215037,-0.116395
"2018-06-07 00:19:26.474 +0000",1528330766.473773,1.506447,-0.206688,0.956179,0.976689,0.205220,-0.062936,0.000000,0.000000,0.000000,-1,0.177974,-0.127629,-0.142657,-0.316426,0.205226,0.048135
"2018-06-07 00:19:26.484 +0000",1528330766.483845,1.508065,-0.212272,0.952777,0.975631,0.210682,-0.061283,0.000000,0.000000,0.000000,-1,0.326932,0.380210,-0.727747,-0.297653,0.246823,0.184285
"2018-06-07 00:19:26.494 +0000",1528330766.493919,1.517661,-0.223092,0.948310,0.973841,0.221246,-0.051794,0.000000,0.000000,0.000000,-1,0.380120,1.295688,-1.201716,-0.238215,0.234259,0.299292
"2018-06-07 00:19:26.504 +0000",1528330766.503993,1.535457,-0.240111,0.940286,0.970704,0.237810,-0.034319,0.000000,0.000000,0.000000,-1,0.850286,2.119013,-1.937215,-0.302125,0.029249,0.081270
"2018-06-07 00:19:26.514 +0000",1528330766.514066,1.555150,-0.264820,0.927802,0.965021,0.261736,-0.015101,0.000000,0.000000,0.000000,-1,1.201011,2.267787,-2.628149,-0.564798,-0.193392,-0.316564
"2018-06-07 00:19:26.524 +0000",1528330766.524139,1.572886,-0.293032,0.915147,0.957370,0.288856,0.002000,0.000000,0.000000,0.000000,-1,1.181277,2.061939,-2.768537,-0.391513,-0.350563,-0.154741
"2018-06-07 00:19:26.534 +0000",1528330766.534214,1.588529,-0.316789,0.900916,0.950090,0.311517,0.016849,0.000000,0.000000,0.000000,-1,1.445888,1.943918,-2.197243,0.181151,-0.203180,-0.045475
"2018-06-07 00:19:26.544 +0000",1528330766.544286,1.602316,-0.336484,0.886168,0.943452,0.330170,0.029747,0.000000,0.000000,0.000000,-1,1.388873,1.800765,-1.867306,0.408294,-0.043427,0.227531
"2018-06-07 00:19:26.554 +0000",1528330766.554359,1.617170,-0.354273,0.875123,0.936890,0.346909,0.043478,0.000000,0.000000,0.000000,-1,0.997581,1.876777,-1.666119,0.424942,-0.191086,0.656275
"2018-06-07 00:19:26.564 +0000",1528330766.564434,1.634470,-0.369204,0.868548,0.930724,0.360874,0.059343,0.000000,0.000000,0.000000,-1,0.593088,1.946934,-1.386396,0.577058,-0.162464,0.809416
"2018-06-07 00:19:26.575 +0000",1528330766.574506,1.649580,-0.382393,0.865466,0.924896,0.373142,0.073018,0.000000,0.000000,0.000000,-1,0.330807,1.461429,-1.229088,0.499283,-0.119388,0.713283
"2018-06-07 00:19:26.585 +0000",1528330766.584580,1.658105,-0.392301,0.863321,0.920511,0.382316,0.080573,0.000000,0.000000,0.000000,-1,0.249067,0.751729,-0.892137,0.472937,-0.078513,0.360009
"2018-06-07 00:19:26.595 +0000",1528330766.594654,1.661044,-0.400923,0.863019,0.916953,0.390268,0.082978,0.000000,0.000000,0.000000,-1,0.059281,0.167061,-0.862210,0.273781,-0.069559,0.199157
"2018-06-07 00:19:26.605 +0000",1528330766.604728,1.658553,-0.411054,0.863147,0.913172,0.399576,0.080343,0.000000,0.000000,0.000000,-1,0.115939,-0.385231,-1.059713,0.064184,-0.104547,-0.077902
"2018-06-07 00:19:26.615 +0000",1528330766.614800,1.650854,-0.424219,0.860761,0.908441,0.411609,0.072884,0.000000,0.000000,0.000000,-1,0.396884,-0.734496,-1.356099,0.017814,-0.114429,-0.412010
"2018-06-07 00:19:26.625 +0000",1528330766.624875,1.642525,-0.438908,0.856424,0.902888,0.424951,0.064875,0.000000,0.000000,0.000000,-1,0.509629,-0.574727,-1.422583,0.059804,-0.058954,-0.386942
"2018-06-07 00:19:26.635 +0000",1528330766.634947,1.637860,-0.451934,0.851786,0.897581,0.436706,0.060285,0.000000,0.000000,0.000000,-1,0.500240,-0.178266,-1.206279,0.151171,0.083054,-0.210859
"2018-06-07 00:19:26.645 +0000",1528330766.645021,1.634571,-0.464378,0.847148,0.892282,0.447867,0.056983,0.000000,0.000000,0.000000,-1,0.489924,-0.133160,-1.236242,0.139258,0.143610,-0.140479
"2018-06-07 00:19:26.655 +0000",1528330766.655095,1.631653,-0.478854,0.844051,0.885880,0.460762,0.053978,0.000000,0.000000,0.000000,-1,0.301556,-0.110766,-1.465934,-0.014603,-0.000831,0.056495
"2018-06-07 00:19:26.665 +0000",1528330766.665167,1.630808,-0.494479,0.844819,0.878631,0.474573,0.052791,0.000000,0.000000,0.000000,-1,-0.071414,-0.150826,-1.584593,-0.036193,-0.222040,0.240086
"2018-06-07 00:19:26.675 +0000",1528330766.675241,1.630211,-0.510031,0.848422,0.871189,0.488205,0.051822,0.000000,0.000000,0.000000,-1,-0.233549,-0.252533,-1.522130,-0.049762,-0.118225,0.015866
"2018-06-07 00:19:26.685 +0000",1528330766.685314,1.628646,-0.524757,0.852584,0.863998,0.501002,0.050038,0.000000,0.000000,0.000000,-1,-0.309158,-0.422978,-1.503091,-0.035247,-0.053798,-0.154698
"2018-06-07 00:19:26.695 +0000",1528330766.695388,1.625740,-0.540776,0.858634,0.856015,0.514802,0.047080,0.000000,0.000000,0.000000,-1,-0.449699,-0.619287,-1.642099,-0.096692,-0.074997,-0.114951
"2018-06-07 00:19:26.705 +0000",1528330766.705462,1.623742,-0.556120,0.863993,0.848119,0.527895,0.044946,0.000000,0.000000,0.000000,-1,-0.333275,-0.439498,-1.506311,0.029002,0.067472,-0.036020
"2018-06-07 00:19:26.716 +0000",1528330766.715535,1.620781,-0.569900,0.868282,0.840903,0.539548,0.042068,0.000000,0.000000,0.000000,-1,-0.292410,-0.557533,-1.342174,0.192163,0.172259,0.057130
"2018-06-07 00:19:26.726 +0000",1528330766.725608,1.618022,-0.582376,0.873483,0.834226,0.550010,0.039426,0.000000,0.000000,0.000000,-1,-0.398276,-0.536315,-1.236457,0.173189,0.081216,0.168109
"2018-06-07 00:19:26.736 +0000",1528330766.735682,1.615811,-0.593928,0.879692,0.827909,0.559621,0.037293,0.000000,0.000000,0.000000,-1,-0.479799,-0.602795,-1.143958,0.016330,0.063823,0.041396
"2018-06-07 00:19:26.746 +0000",1528330766.745755,1.611160,-0.604192,0.886475,0.822290,0.568097,0.033209,0.000000,0.000000,0.000000,-1,-0.514180,-0.932813,-1.002854,-0.013758,0.023745,-0.094992
"2018-06-07 00:19:26.756 +0000",1528330766.755828,1.602776,-0.612908,0.892904,0.817560,0.575249,0.026154,0.000000,0.000000,0.000000,-1,-0.485663,-1.272607,-0.844712,-0.018518,0.021324,-0.109207
"2018-06-07 00:19:26.766 +0000",1528330766.765903,1.591500,-0.619876,0.898636,0.813775,0.580935,0.016851,0.000000,0.000000,0.000000,-1,-0.421840,-1.500494,-0.647603,0.017157,-0.004564,-0.048528
"2018-06-07 00:19:26.776 +0000",1528330766.775975,1.576455,-0.624392,0.902644,0.811305,0.584604,0.004591,0.000000,0.000000,0.000000,-1,-0.280723,-1.793203,-0.386320,0.116780,0.022696,-0.000044
"2018-06-07 00:19:26.786 +0000",1528330766.786049,1.558356,-0.627370,0.905176,0.809511,0.587017,-0.010071,0.000000,0.000000,0.000000,-1,-0.190960,-1.983274,-0.289195,0.059675,0.032978,0.050186
"2018-06-07 00:19:26.796 +0000",1528330766.796123,1.539865,-0.630399,0.906354,0.807405,0.589467,-0.024982,0.000000,0.000000,0.000000,-1,-0.055442,-1.853280,-0.308489,-0.072328,-0.010137,0.074405
"2018-06-07 00:19:26.806 +0000",1528330766.806196,1.522225,-0.633708,0.904409,0.804886,0.592137,-0.039125,0.000000,0.000000,0.000000,-1,0.204982,-1.565922,-0.336216,-0.045868,-0.063435,0.106111
"2018-06-07 00:19:26.816 +0000",1528330766.816269,1.506483,-0.636566,0.900322,0.802478,0.594438,-0.051682,0.000000,0.000000,0.000000,-1,0.330361,-1.230941,-0.291427,0.000225,-0.063249,0.174149
"2018-06-07 00:19:26.826 +0000",1528330766.826344,1.493259,-0.639236,0.895354,0.800140,0.596582,-0.062165,0.000000,0.000000,0.000000,-1,0.409916,-0.984839,-0.286591,-0.046829,-0.083032,0.234437
"2018-06-07 00:19:26.836 +0000",1528330766.836416,1.476983,-0.640972,0.887365,0.797990,0.597974,-0.075083,0.000000,0.000000,0.000000,-1,0.705716,-1.236850,-0.204101,-0.058015,-0.125364,0.016764
"2018-06-07 00:19:26.846 +0000",1528330766.846490,1.448243,-0.641081,0.871961,0.795438,0.598063,-0.097974,0.000000,0.000000,0.000000,-1,1.458138,-2.272479,-0.126012,-0.168378,-0.217890,-0.396044
"2018-06-07 00:19:26.857 +0000",1528330766.856564,1.400367,-0.638991,0.846742,0.791068,0.596386,-0.136142,0.000000,0.000000,0.000000,-1,2.050246,-3.454422,-0.080251,-0.462225,-0.286495,-0.941129
"2018-06-07 00:19:26.867 +0000",1528330766.866637,1.357310,-0.637869,0.830068,0.785128,0.595485,-0.170208,0.000000,0.000000,0.000000,-1,1.022391,-3.160498,-0.171699,-0.568820,0.242726,0.368160
"2018-06-07 00:19:26.877 +0000",1528330766.876710,1.325991,-0.639258,0.825430,0.778610,0.596600,-0.194509,0.000000,0.000000,0.000000,-1,0.148409,-2.737928,-0.210418,-0.170563,0.364689,1.086278
"2018-06-07 00:19:26.887 +0000",1528330766.886784,1.305167,-0.639760,0.828092,0.774102,0.597003,-0.210601,0.000000,0.000000,0.000000,-1,-0.327373,-2.013859,0.107942,0.333351,0.202588,0.636840
"2018-06-07 00:19:26.897 +0000",1528330766.896858,1.295706,-0.636685,0.836405,0.773838,0.594533,-0.218412,0.000000,0.000000,0.000000,-1,-0.603880,-1.268000,0.598012,0.572216,0.070857,0.371519
"2018-06-07 00:19:26.907 +0000",1528330766.906930,1.291200,-0.628461,0.848561,0.777519,0.587900,-0.223239,0.000000,0.000000,0.000000,-1,-0.732435,-1.085256,1.176459,0.666649,0.068044,0.217090
"2018-06-07 00:19:26.917 +0000",1528330766.917005,1.293068,-0.618984,0.860428,0.783258,0.580208,-0.223304,0.000000,0.000000,0.000000,-1,-0.630951,-0.281207,1.129086,0.189520,0.223411,0.159583
"2018-06-07 00:19:26.927 +0000",1528330766.927077,1.302470,-0.612091,0.869056,0.789160,0.574580,-0.216985,0.000000,0.000000,0.000000,-1,-0.424776,0.711384,0.692638,-0.219580,0.250569,-0.086940
"2018-06-07 00:19:26.937 +0000",1528330766.937151,1.319278,-0.612759,0.871135,0.792324,0.575126,-0.203595,0.000000,0.000000,0.000000,-1,-0.108038,1.756676,-0.196756,-0.684551,-0.071205,-0.303882
"2018-06-07 00:19:26.947 +0000",1528330766.947225,1.335100,-0.614486,0.870065,0.794479,0.576539,-0.190802,0.000000,0.000000,0.000000,-1,0.076421,1.483484,-0.110846,-0.376037,-0.048783,-0.383279
"2018-06-07 00:19:26.957 +0000",1528330766.957298,1.343774,-0.613711,0.870959,0.796539,0.575905,-0.184004,0.000000,0.000000,0.000000,-1,-0.124253,0.589370,0.144092,0.016327,0.102195,0.002867
"2018-06-07 00:19:26.967 +0000",1528330766.967371,1.347462,-0.612115,0.875864,0.798107,0.574600,-0.181268,0.000000,0.000000,0.000000,-1,-0.435567,-0.069627,0.279494,-0.065426,0.014237,0.324838
"2018-06-07 00:19:26.977 +0000",1528330766.977444,1.348329,-0.610294,0.885233,0.799283,0.573108,-0.180807,0.000000,0.000000,0.000000,-1,-0.770748,-0.552797,0.355227,-0.000867,-0.034580,0.248236
"2018-06-07 00:19:26.988 +0000",1528330766.987518,1.346423,-0.608770,0.895533,0.799788,0.571859,-0.182525,0.000000,0.000000,0.000000,-1,-0.762831,-0.835839,0.316738,-0.061293,-0.175634,0.021438
"2018-06-07 00:19:26.998 +0000",1528330766.997591,1.342130,-0.608122,0.903931,0.799358,0.571327,-0.186040,0.000000,0.000000,0.000000,-1,-0.612490,-0.897375,0.168852,-0.111858,-0.275322,-0.095210
"2018-06-07 00:19:27.008 +0000",1528330767.007665,1.337216,-0.608842,0.910139,0.798033,0.571918,-0.189871,0.000000,0.000000,0.000000,-1,-0.478997,-0.820591,0.009574,-0.093535,-0.303684,-0.023981
"2018-06-07 00:19:27.018 +0000",1528330767.017738,1.331849,-0.610180,0.914819,0.796259,0.573015,-0.193970,0.000000,0.000000,0.000000,-1,-0.370395,-0.798094,-0.047619,0.031775,-0.323839,0.035934
"2018-06-07 00:19:27.028 +0000",1528330767.027812,1.325924,-0.611207,0.917672,0.794524,0.573856,-0.198541,0.000000,0.000000,0.000000,-1,-0.205590,-0.719707,-0.044541,0.151170,-0.306355,0.047754
"2018-06-07 00:19:27.038 +0000",1528330767.037885,1.320441,-0.612120,0.918178,0.792916,0.574603,-0.202765,0.000000,0.000000,0.000000,-1,-0.013185,-0.524660,-0.093894,0.169150,-0.273609,0.078391
"2018-06-07 00:19:27.048 +0000",1528330767.047959,1.315063,-0.613369,0.916188,0.791119,0.575626,-0.206845,0.000000,0.000000,0.000000,-1,0.163838,-0.389861,-0.184262,0.172657,-0.226169,0.091992
"2018-06-07 00:19:27.058 +0000",1528330767.058033,1.309615,-0.615314,0.912465,0.788898,0.577215,-0.210862,0.000000,0.000000,0.000000,-1,0.263314,-0.304606,-0.291806,0.179440,-0.187078,0.143602
"2018-06-07 00:19:27.068 +0000",1528330767.068105,1.304992,-0.618559,0.907704,0.786103,0.579862,-0.214014,0.000000,0.000000,0.000000,-1,0.291735,-0.147956,-0.455989,0.154128,-0.126340,0.215890
"2018-06-07 00:19:27.078 +0000",1528330767.078179,1.299983,-0.623142,0.902188,0.782452,0.583589,-0.217235,0.000000,0.000000,0.000000,-1,0.313771,-0.212135,-0.582077,0.142444,-0.118120,0.198315
"2018-06-07 00:19:27.088 +0000",1528330767.088253,1.292667,-0.628623,0.896211,0.777754,0.588031,-0.222073,0.000000,0.000000,0.000000,-1,0.314746,-0.433465,-0.681682,0.174012,-0.148594,0.131557
"2018-06-07 00:19:27.098 +0000",1528330767.098326,1.283388,-0.635075,0.889554,0.772006,0.593238,-0.228199,0.000000,0.000000,0.000000,-1,0.343005,-0.552587,-0.790733,0.173550,-0.108893,0.115910
"2018-06-07 00:19:27.108 +0000",1528330767.108399,1.273331,-0.642482,0.882321,0.765449,0.599185,-0.234657,0.000000,0.000000,0.000000,-1,0.331236,-0.570836,-0.897248,0.207588,-0.085742,0.139595
"2018-06-07 00:19:27.118 +0000",1528330767.118474,1.263625,-0.650958,0.875037,0.758267,0.605949,-0.240531,0.000000,0.000000,0.000000,-1,0.296254,-0.505733,-1.000241,0.213443,-0.092399,0.182441
"2018-06-07 00:19:27.129 +0000",1528330767.128546,1.299675,-0.581535,0.893286,0.805096,0.549307,-0.223789,0.000000,0.000000,0.000000,-1,0.346070,-0.390024,-1.073162,0.121388,-0.036429,0.086475
"2018-06-07 00:19:27.139 +0000",1528330767.138620,1.319679,-0.552252,0.900180,0.824642,0.524606,-0.211547,0.000000,0.000000,0.000000,-1,0.426968,-0.334870,-1.082868,0.082386,0.012137,-0.009217
"2018-06-07 00:19:27.149 +0000",1528330767.148694,1.311727,-0.560990,0.891379,0.818472,0.532025,-0.216916,0.000000,0.000000,0.000000,-1,0.527157,-0.334942,-0.999197,0.074915,0.038273,0.003949
"2018-06-07 00:19:27.159 +0000",1528330767.158767,1.302421,-0.568355,0.881704,0.812618,0.538246,-0.223478,0.000000,0.000000,0.000000,-1,0.609495,-0.432813,-0.903938,0.069401,0.088860,0.021025
"2018-06-07 00:19:27.169 +0000",1528330767.168840,1.292687,-0.575808,0.871436,0.806524,0.544512,-0.230270,0.000000,0.000000,0.000000,-1,0.629897,-0.406153,-0.965219,-0.032675,0.181180,0.100021
"2018-06-07 00:19:27.179 +0000",1528330767.178914,1.282745,-0.583778,0.861118,0.800008,0.551180,-0.237036,0.000000,0.000000,0.000000,-1,0.587160,-0.445634,-1.002883,-0.060430,0.214963,0.128454
"2018-06-07 00:19:27.189 +0000",1528330767.188987,1.272872,-0.592250,0.851322,0.793137,0.558229,-0.243544,0.000000,0.000000,0.000000,-1,0.515069,-0.432446,-1.054311,-0.026566,0.187331,0.073347
"2018-06-07 00:19:27.199 +0000",1528330767.199060,1.263117,-0.601001,0.841693,0.786037,0.565468,-0.249780,0.000000,0.000000,0.000000,-1,0.495128,-0.440181,-1.055363,-0.035686,0.169303,-0.027961
"2018-06-07 00:19:27.209 +0000",1528330767.209135,1.252667,-0.607951,0.832465,0.779633,0.571187,-0.256745,0.000000,0.000000,0.000000,-1,0.506032,-0.552011,-0.820147,-0.017883,0.169933,-0.164444
"2018-06-07 00:19:27.219 +0000",1528330767.219207,1.240375,-0.613473,0.824167,0.773423,0.575711,-0.265281,0.000000,0.000000,0.000000,-1,0.442496,-0.796300,-0.722829,-0.093933,0.218113,-0.229379
"2018-06-07 00:19:27.229 +0000",1528330767.229281,1.228909,-0.618678,0.817575,0.767497,0.579958,-0.273123,0.000000,0.000000,0.000000,-1,0.300984,-0.739999,-0.629836,-0.193080,0.248899,-0.178705
"2018-06-07 00:19:27.239 +0000",1528330767.239355,1.219664,-0.622721,0.813389,0.762731,0.583247,-0.279398,0.000000,0.000000,0.000000,-1,0.138767,-0.662197,-0.442075,-0.106191,0.263997,-0.165274
"2018-06-07 00:19:27.249 +0000",1528330767.249429,1.213167,-0.625090,0.812391,0.759603,0.585171,-0.283863,0.000000,0.000000,0.000000,-1,-0.060823,-0.550783,-0.178837,-0.005544,0.301075,-0.115658
"2018-06-07 00:19:27.260 +0000",1528330767.259501,1.210746,-0.625874,0.815024,0.758484,0.585806,-0.285539,0.000000,0.000000,0.000000,-1,-0.279192,-0.332814,0.054637,-0.001084,0.321451,-0.046248
"2018-06-07 00:19:27.270 +0000",1528330767.269574,1.212163,-0.625590,0.820586,0.759044,0.585575,-0.284523,0.000000,0.000000,0.000000,-1,-0.448717,-0.138584,0.222315,-0.042781,0.292324,-0.059060
"2018-06-07 00:19:27.280 +0000",1528330767.279648,1.215915,-0.624466,0.828176,0.760723,0.584664,-0.281901,0.000000,0.000000,0.000000,-1,-0.555848,-0.049389,0.347594,-0.046382,0.235191,-0.059423
"2018-06-07 00:19:27.290 +0000",1528330767.289721,1.220828,-0.622170,0.837256,0.763358,0.582800,-0.278620,0.000000,0.000000,0.000000,-1,-0.624324,-0.042576,0.510193,-0.005316,0.179423,-0.004110
"2018-06-07 00:19:27.300 +0000",1528330767.299796,1.225669,-0.618250,0.848307,0.766841,0.579610,-0.275692,0.000000,0.000000,0.000000,-1,-0.742432,-0.213976,0.729397,0.080083,0.127040,0.091641
"2018-06-07 00:19:27.310 +0000",1528330767.309868,1.229133,-0.612880,0.861876,0.770713,0.575226,-0.274073,0.000000,0.000000,0.000000,-1,-0.894774,-0.511548,0.908513,0.154733,0.050781,0.165979
"2018-06-07 00:19:27.320 +0000",1528330767.319942,1.231972,-0.606985,0.877256,0.774673,0.570394,-0.273006,0.000000,0.000000,0.000000,-1,-1.005571,-0.598904,0.985959,0.140046,0.026255,0.205928
"2018-06-07 00:19:27.330 +0000",1528330767.330015,1.235338,-0.600725,0.892972,0.778944,0.565241,-0.271567,0.000000,0.000000,0.000000,-1,-0.997427,-0.527633,1.010886,0.096392,0.057165,0.147208
"2018-06-07 00:19:27.340 +0000",1528330767.340089,1.240079,-0.594317,0.907529,0.783632,0.559943,-0.269042,0.000000,0.000000,0.000000,-1,-0.890422,-0.264902,0.995270,0.102980,0.083871,0.054259
"2018-06-07 00:19:27.350 +0000",1528330767.350163,1.247038,-0.586597,0.921036,0.789560,0.553530,-0.264950,0.000000,0.000000,0.000000,-1,-0.785565,0.004911,1.121666,0.156759,0.042433,0.051571
"2018-06-07 00:19:27.360 +0000",1528330767.360236,1.255354,-0.577942,0.933391,0.796261,0.546302,-0.259850,0.000000,0.000000,0.000000,-1,-0.664910,0.203974,1.114439,0.057072,0.075540,-0.008216
"2018-06-07 00:19:27.370 +0000",1528330767.370309,1.263474,-0.570364,0.942663,0.802268,0.539938,-0.254622,0.000000,0.000000,0.000000,-1,-0.451143,0.321865,0.891634,-0.189307,0.113596,-0.118608
"2018-06-07 00:19:27.380 +0000",1528330767.380383,1.269689,-0.563847,0.948929,0.807178,0.534441,-0.250669,0.000000,0.000000,0.000000,-1,-0.265113,0.259317,0.746889,-0.265659,0.064008,-0.133364
"2018-06-07 00:19:27.390 +0000",1528330767.390456,1.274514,-0.557515,0.952913,0.811599,0.529079,-0.247755,0.000000,0.000000,0.000000,-1,-0.088204,0.289711,0.684185,-0.308470,0.039784,-0.086062
"2018-06-07 00:19:27.401 +0000",1528330767.400529,1.279122,-0.551191,0.953985,0.815920,0.523703,-0.244969,0.000000,0.000000,0.000000,-1,0.162242,0.452118,0.603411,-0.296281,-0.031240,-0.037318
"2018-06-07 00:19:27.411 +0000",1528330767.410604,1.284133,-0.545888,0.950971,0.819790,0.519177,-0.241659,0.000000,0.000000,0.000000,-1,0.475828,0.729566,0.356101,-0.264919,-0.101071,0.020788
"2018-06-07 00:19:27.421 +0000",1528330767.420677,1.289457,-0.543147,0.943136,0.822429,0.516832,-0.237686,0.000000,0.000000,0.000000,-1,0.784132,0.985589,-0.021411,-0.303828,-0.132509,0.056686
"2018-06-07 00:19:27.431 +0000",1528330767.430751,1.294068,-0.543415,0.932069,0.823382,0.517062,-0.233854,0.000000,0.000000,0.000000,-1,0.918054,1.018150,-0.367981,-0.308673,-0.074374,0.025388
"2018-06-07 00:19:27.441 +0000",1528330767.440824,1.297038,-0.546171,0.919733,0.822698,0.519419,-0.231021,0.000000,0.000000,0.000000,-1,0.935592,0.900551,-0.585643,-0.231252,0.007940,0.005145
"2018-06-07 00:19:27.451 +0000",1528330767.450898,1.298412,-0.549225,0.907660,0.821483,0.522026,-0.229463,0.000000,0.000000,0.000000,-1,0.878759,0.686154,-0.544187,-0.067775,0.066673,0.008027
"2018-06-07 00:19:27.461 +0000",1528330767.460971,1.297016,-0.551096,0.898574,0.820220,0.523621,-0.230344,0.000000,0.000000,0.000000,-1,0.616969,0.214624,-0.315847,-0.004012,0.138397,0.043088
"2018-06-07 00:19:27.471 +0000",1528330767.471044,1.293839,-0.550667,0.893847,0.819700,0.523256,-0.233010,0.000000,0.000000,0.000000,-1,0.325968,-0.153110,0.010746,-0.039121,0.240706,0.055596
"2018-06-07 00:19:27.481 +0000",1528330767.481118,1.289594,-0.549155,0.892395,0.819463,0.521966,-0.236707,0.000000,0.000000,0.000000,-1,0.109083,-0.425285,0.111562,-0.107732,0.161597,0.007383
"2018-06-07 00:19:27.491 +0000",1528330767.491191,1.286071,-0.548752,0.890963,0.818825,0.521623,-0.239651,0.000000,0.000000,0.000000,-1,0.161344,-0.154514,-0.025453,-0.194970,0.016936,0.001568
"2018-06-07 00:19:27.501 +0000",1528330767.501265,1.284859,-0.548573,0.887862,0.818624,0.521470,-0.240670,0.000000,0.000000,0.000000,-1,0.284261,0.075395,-0.057335,-0.088567,0.114257,-0.120139
"2018-06-07 00:19:27.511 +0000",1528330767.511338,1.284624,-0.547586,0.883160,0.819061,0.520628,-0.241008,0.000000,0.000000,0.000000,-1,0.451656,0.263317,0.005216,-0.016280,0.125093,-0.091619
"2018-06-07 00:19:27.521 +0000",1528330767.521412,1.284439,-0.545307,0.877608,0.820153,0.518680,-0.241494,0.000000,0.000000,0.000000,-1,0.525509,0.257638,0.099687,-0.017281,0.135769,-0.085334
"2018-06-07 00:19:27.531 +0000",1528330767.531485,1.284416,-0.543950,0.872194,0.820821,0.517520,-0.241711,0.000000,0.000000,0.000000,-1,0.452079,0.304188,-0.054902,-0.084127,0.056394,-0.071414
"2018-06-07 00:19:27.542 +0000",1528330767.541559,1.286487,-0.545474,0.866910,0.820562,0.518824,-0.239790,0.000000,0.000000,0.000000,-1,0.379613,0.547870,-0.359511,-0.186254,-0.024103,-0.066637
"2018-06-07 00:19:27.552 +0000",1528330767.551632,1.288412,-0.550434,0.857917,0.818540,0.523057,-0.237489,0.000000,0.000000,0.000000,-1,0.718966,0.673598,-0.797710,-0.266294,-0.134050,-0.109893
"2018-06-07 00:19:27.562 +0000",1528330767.561706,1.286446,-0.556703,0.840082,0.814909,0.528390,-0.238174,0.000000,0.000000,0.000000,-1,1.460355,0.760199,-1.062688,-0.167051,-0.161065,-0.090455
"2018-06-07 00:19:27.572 +0000",1528330767.571779,1.282351,-0.560774,0.816129,0.811857,0.531842,-0.240895,0.000000,0.000000,0.000000,-1,1.891555,0.880278,-0.877240,0.072207,0.073459,0.060765
"2018-06-07 00:19:27.582 +0000",1528330767.581852,1.278761,-0.561249,0.793904,0.810745,0.532244,-0.243735,0.000000,0.000000,0.000000,-1,1.693309,0.758435,-0.486681,0.263016,0.193387,0.130484
"2018-06-07 00:19:27.592 +0000",1528330767.591926,1.274234,-0.561020,0.777884,0.809750,0.532050,-0.247438,0.000000,0.000000,0.000000,-1,1.158210,0.271220,-0.364250,0.179432,0.075646,0.093218
"2018-06-07 00:19:27.602 +0000",1528330767.601999,1.267861,-0.563083,0.766541,0.807107,0.533796,-0.252266,0.000000,0.000000,0.000000,-1,0.769034,-0.114535,-0.518298,-0.075937,0.008486,0.028083
"2018-06-07 00:19:27.612 +0000",1528330767.612073,1.260436,-0.567283,0.757658,0.803070,0.537342,-0.257565,0.000000,0.000000,0.000000,-1,0.521326,-0.305668,-0.653818,-0.167069,0.021847,-0.013737
"2018-06-07 00:19:27.622 +0000",1528330767.622146,1.253400,-0.573400,0.751149,0.798100,0.542491,-0.262178,0.000000,0.000000,0.000000,-1,0.273352,-0.358556,-0.771725,-0.180181,0.040196,-0.036498
"2018-06-07 00:19:27.632 +0000",1528330767.632220,1.247418,-0.581070,0.745637,0.792549,0.548919,-0.265617,0.000000,0.000000,0.000000,-1,0.193423,-0.262707,-0.906794,-0.166481,0.040101,-0.064522
"2018-06-07 00:19:27.642 +0000",1528330767.642293,1.241498,-0.589416,0.739376,0.786600,0.555876,-0.268814,0.000000,0.000000,0.000000,-1,0.223990,-0.244990,-0.922947,-0.064615,0.003878,-0.062439
"2018-06-07 00:19:27.652 +0000",1528330767.652367,1.237225,-0.596249,0.736226,0.781837,0.561543,-0.270922,0.000000,0.000000,0.000000,-1,-0.088841,-0.243619,-0.671602,0.155526,0.007809,0.119601
"2018-06-07 00:19:27.662 +0000",1528330767.662440,1.236549,-0.604699,0.741227,0.777144,0.568515,-0.269884,0.000000,0.000000,0.000000,-1,-0.861765,-0.409354,-0.667087,-0.000395,-0.209658,0.371096
"2018-06-07 00:19:27.673 +0000",1528330767.672514,1.235530,-0.614372,0.749950,0.771639,0.576446,-0.268854,0.000000,0.000000,0.000000,-1,-0.930847,-0.632378,-0.670804,-0.071581,-0.085494,0.156672
"2018-06-07 00:19:27.683 +0000",1528330767.682587,1.233192,-0.623895,0.753121,0.765794,0.584201,-0.268827,0.000000,0.000000,0.000000,-1,-0.446357,-0.254670,-0.891322,-0.025834,-0.004687,-0.172228
"2018-06-07 00:19:27.693 +0000",1528330767.692660,1.232230,-0.636279,0.749522,0.758652,0.594207,-0.267140,0.000000,0.000000,0.000000,-1,-0.042835,0.195301,-1.382507,-0.097763,-0.195632,-0.088634
"2018-06-07 00:19:27.703 +0000",1528330767.702734,1.231170,-0.652624,0.741714,0.749110,0.607273,-0.264673,0.000000,0.000000,0.000000,-1,0.101142,0.340249,-1.821278,-0.175685,-0.174198,0.002970
"2018-06-07 00:19:27.713 +0000",1528330767.712807,1.226515,-0.672398,0.731308,0.736421,0.622864,-0.264052,0.000000,0.000000,0.000000,-1,0.239527,-0.014223,-2.017318,-0.259752,-0.128052,-0.040895
"2018-06-07 00:19:27.723 +0000",1528330767.722881,1.214233,-0.692533,0.718722,0.721222,0.638488,-0.268644,0.000000,0.000000,0.000000,-1,0.232617,-0.548845,-2.282391,-0.420548,-0.154953,0.006742
"2018-06-07 00:19:27.733 +0000",1528330767.732954,1.195057,-0.714331,0.702371,0.702822,0.655112,-0.277250,0.000000,0.000000,0.000000,-1,0.423708,-0.901969,-2.503287,-0.430819,-0.117514,-0.054476
"2018-06-07 00:19:27.743 +0000",1528330767.743028,1.177163,-0.735529,0.686121,0.684768,0.670979,-0.284390,0.000000,0.000000,0.000000,-1,0.296150,-0.634058,-2.338718,-0.277633,-0.088216,-0.037067
"2018-06-07 00:19:27.753 +0000",1528330767.753101,1.161480,-0.755094,0.671178,0.668051,0.685357,-0.289813,0.000000,0.000000,0.000000,-1,0.375278,-0.617791,-1.976359,-0.034796,-0.006982,-0.090863
"2018-06-07 00:19:27.763 +0000",1528330767.763175,1.145497,-0.768852,0.657792,0.654682,0.695311,-0.296534,0.000000,0.000000,0.000000,-1,0.280452,-0.659476,-1.522341,0.200939,0.175432,0.041468
"2018-06-07 00:19:27.773 +0000",1528330767.773248,1.133636,-0.779119,0.648785,0.644618,0.702653,-0.301240,0.000000,0.000000,0.000000,-1,0.127881,-0.522279,-1.093486,0.288167,0.163162,0.172059
"2018-06-07 00:19:27.783 +0000",1528330767.783321,1.124042,-0.786512,0.642524,0.636995,0.707894,-0.305158,0.000000,0.000000,0.000000,-1,0.079213,-0.513868,-0.774959,0.219755,0.163246,-0.036242
"2018-06-07 00:19:27.793 +0000",1528330767.793395,1.116702,-0.794446,0.638600,0.629671,0.713476,-0.307352,0.000000,0.000000,0.000000,-1,0.014876,-0.460947,-0.610084,0.136488,0.200251,-0.071219
"2018-06-07 00:19:27.803 +0000",1528330767.803468,1.111947,-0.799607,0.636644,0.624893,0.717082,-0.308707,0.000000,0.000000,0.000000,-1,-0.143741,-0.291728,-0.491983,0.062836,0.214223,0.020331
"2018-06-07 00:19:27.814 +0000",1528330767.813542,1.109431,-0.804180,0.636399,0.621171,0.720262,-0.308816,0.000000,0.000000,0.000000,-1,-0.185558,-0.222016,-0.389498,0.030394,0.193892,0.010232
"2018-06-07 00:19:27.824 +0000",1528330767.823615,1.106885,-0.807739,0.635741,0.618087,0.722726,-0.309247,0.000000,0.000000,0.000000,-1,-0.087366,-0.191284,-0.322944,-0.003234,0.172522,-0.054659
"2018-06-07 00:19:27.834 +0000",1528330767.833689,1.105209,-0.812086,0.634260,0.614755,0.725724,-0.308869,0.000000,0.000000,0.000000,-1,0.083774,-0.060714,-0.193879,-0.012368,0.152084,-0.037032
"2018-06-07 00:19:27.844 +0000",1528330767.843762,1.103089,-0.811747,0.630964,0.614318,0.725491,-0.310282,0.000000,0.000000,0.000000,-1,0.255791,0.052191,-0.040127,0.100129,0.113178,-0.042531
"2018-06-07 00:19:27.854 +0000",1528330767.853836,1.102126,-0.809971,0.626874,0.615167,0.724267,-0.311456,0.000000,0.000000,0.000000,-1,0.334701,0.239727,0.055970,0.133307,0.097968,-0.053488
"2018-06-07 00:19:27.864 +0000",1528330767.863909,1.103194,-0.807687,0.623580,0.616975,0.722690,-0.311544,0.000000,0.000000,0.000000,-1,0.285827,0.372185,0.112401,0.010009,0.130230,0.022390
"2018-06-07 00:19:27.874 +0000",1528330767.873983,1.105377,-0.805354,0.621607,0.619158,0.721076,-0.310952,0.000000,0.000000,0.000000,-1,0.213049,0.335571,0.156563,-0.118624,0.184518,0.033913
"2018-06-07 00:19:27.884 +0000",1528330767.884056,1.106416,-0.802970,0.619953,0.621016,0.719422,-0.311077,0.000000,0.000000,0.000000,-1,0.214200,0.180763,0.162564,-0.114898,0.184554,-0.043278
"2018-06-07 00:19:27.894 +0000",1528330767.894129,1.105921,-0.799570,0.618032,0.623045,0.717056,-0.312479,0.000000,0.000000,0.000000,-1,0.296394,0.069633,0.278222,0.036501,0.169876,-0.123876
"2018-06-07 00:19:27.904 +0000",1528330767.904203,1.104938,-0.794171,0.615775,0.626188,0.713283,-0.314826,0.000000,0.000000,0.000000,-1,0.405329,0.058216,0.455421,0.197787,0.172505,-0.158883
"2018-06-07 00:19:27.914 +0000",1528330767.914276,1.104694,-0.789026,0.614201,0.629381,0.709667,-0.316624,0.000000,0.000000,0.000000,-1,0.486679,0.050964,0.668191,0.251463,0.201679,-0.137233
"2018-06-07 00:19:27.924 +0000",1528330767.924350,1.102968,-0.779551,0.612635,0.634807,0.702960,-0.320728,0.000000,0.000000,0.000000,-1,0.529809,-0.126285,0.818167,0.198063,0.239270,-0.081708
"2018-06-07 00:19:27.934 +0000",1528330767.934423,1.095324,-0.769796,0.610349,0.638403,0.695989,-0.328694,0.000000,0.000000,0.000000,-1,0.606529,-0.811936,0.760063,0.066324,0.294551,-0.055430
"2018-06-07 00:19:27.944 +0000",1528330767.944497,1.076100,-0.761553,0.605165,0.636995,0.690046,-0.343618,0.000000,0.000000,0.000000,-1,0.745187,-1.763182,0.465479,-0.112215,0.249071,-0.072795
"2018-06-07 00:19:27.955 +0000",1528330767.954570,1.050907,-0.756748,0.596913,0.631007,0.686561,-0.361198,0.000000,0.000000,0.000000,-1,0.717341,-1.905143,0.005829,-0.302607,0.163064,-0.007851
"2018-06-07 00:19:27.965 +0000",1528330767.964644,1.030944,-0.756902,0.588374,0.623580,0.686673,-0.373667,0.000000,0.000000,0.000000,-1,0.467867,-1.208067,-0.419679,-0.477264,0.179340,0.187632
"2018-06-07 00:19:27.975 +0000",1528330767.974717,1.015580,-0.759837,0.579646,0.616051,0.688803,-0.382140,0.000000,0.000000,0.000000,-1,0.362955,-0.893595,-0.611064,-0.366661,0.216226,0.164336
"2018-06-07 00:19:27.985 +0000",1528330767.984791,1.000866,-0.764074,0.571691,0.607898,0.691869,-0.389584,0.000000,0.000000,0.000000,-1,0.206904,-0.916849,-0.666708,-0.149738,0.149668,0.069867
"2018-06-07 00:19:27.995 +0000",1528330767.994864,0.987272,-0.770682,0.564989,0.598718,0.696625,-0.395284,0.000000,0.000000,0.000000,-1,-0.003738,-0.867177,-0.871529,-0.176050,0.027634,0.095113
"2018-06-07 00:19:28.005 +0000",1528330768.004937,0.975958,-0.779199,0.559089,0.589272,0.702709,-0.398693,0.000000,0.000000,0.000000,-1,-0.159867,-0.664216,-0.944801,-0.264276,0.053379,0.137356
"2018-06-07 00:19:28.015 +0000",1528330768.015011,0.965516,-0.787248,0.554368,0.580407,0.708413,-0.401593,0.000000,0.000000,0.000000,-1,-0.163023,-0.760356,-0.795559,-0.183312,0.047446,0.169416
"2018-06-07 00:19:28.025 +0000",1528330768.025084,0.953663,-0.793254,0.549941,0.572126,0.712640,-0.405975,0.000000,0.000000,0.000000,-1,-0.057099,-0.881539,-0.622975,-0.029920,0.020362,-0.013474
"2018-06-07 00:19:28.035 +0000",1528330768.035158,0.943148,-0.797290,0.544812,0.565493,0.715465,-0.410276,0.000000,0.000000,0.000000,-1,0.087716,-0.580836,-0.506262,0.043455,0.003514,-0.059557
"2018-06-07 00:19:28.045 +0000",1528330768.045231,0.935486,-0.800297,0.538733,0.560598,0.717563,-0.413318,0.000000,0.000000,0.000000,-1,0.175588,-0.288628,-0.495932,0.092753,0.029507,0.004855
"2018-06-07 00:19:28.055 +0000",1528330768.055305,0.928064,-0.803983,0.533270,0.555394,0.720126,-0.415879,0.000000,0.000000,0.000000,-1,0.030946,-0.400895,-0.521743,0.049281,0.034803,-0.045669
"2018-06-07 00:19:28.065 +0000",1528330768.065378,0.919186,-0.809913,0.532852,0.548275,0.724227,-0.418196,0.000000,0.000000,0.000000,-1,-0.489753,-1.051315,-0.476190,-0.161602,-0.052673,-0.043337
"2018-06-07 00:19:28.075 +0000",1528330768.075452,0.911397,-0.817554,0.533251,0.540612,0.729475,-0.419052,0.000000,0.000000,0.000000,-1,-0.329210,-0.520983,-0.657875,-0.403741,-0.264661,0.095687
"2018-06-07 00:19:28.086 +0000",1528330768.085525,0.902518,-0.824025,0.528567,0.533153,0.733886,-0.420901,0.000000,0.000000,0.000000,-1,-0.109445,-0.581745,-0.682219,-0.323391,-0.111892,0.121951
"2018-06-07 00:19:28.096 +0000",1528330768.095599,0.890427,-0.827999,0.523891,0.525754,0.736580,-0.425478,0.000000,0.000000,0.000000,-1,0.040303,-0.956681,-0.440557,0.090426,-0.254082,-0.116133
"2018-06-07 00:19:28.106 +0000",1528330768.105672,0.876853,-0.828543,0.520674,0.519622,0.736947,-0.432319,0.000000,0.000000,0.000000,-1,0.147942,-1.113789,-0.076617,0.367600,-0.237100,-0.271675
"2018-06-07 00:19:28.116 +0000",1528330768.115745,0.867808,-0.829327,0.519737,0.515250,0.737477,-0.436628,0.000000,0.000000,0.000000,-1,0.161180,-0.647234,0.193621,0.417734,-0.243779,-0.091753
"2018-06-07 00:19:28.126 +0000",1528330768.125819,0.863540,-0.825828,0.518904,0.515340,0.735110,-0.440497,0.000000,0.000000,0.000000,-1,0.316993,-0.294608,0.239468,0.349071,-0.161455,0.035422
"2018-06-07 00:19:28.136 +0000",1528330768.135892,0.858850,-0.820639,0.516227,0.516149,0.731582,-0.445395,0.000000,0.000000,0.000000,-1,0.516204,-0.293148,0.285268,0.197703,-0.131667,-0.022867
"2018-06-07 00:19:28.146 +0000",1528330768.145966,0.850110,-0.814017,0.511637,0.515866,0.727051,-0.453076,0.000000,0.000000,0.000000,-1,0.729840,-0.635008,0.273028,-0.039273,-0.114030,-0.097706
"2018-06-07 00:19:28.156 +0000",1528330768.156039,0.831770,-0.810551,0.501114,0.509329,0.724667,-0.464155,0.000000,0.000000,0.000000,-1,0.918559,-1.127728,-0.168776,-0.240790,-0.198239,-0.143038
"2018-06-07 00:19:28.166 +0000",1528330768.166113,0.808811,-0.809552,0.485783,0.499063,0.723978,-0.476225,0.000000,0.000000,0.000000,-1,0.799200,-1.134348,-0.764429,-0.318750,-0.249201,0.006391
"2018-06-07 00:19:28.176 +0000",1528330768.176186,0.786167,-0.810674,0.469072,0.487578,0.724752,-0.486828,0.000000,0.000000,0.000000,-1,0.724333,-1.030899,-0.875824,-0.076841,0.028697,0.055203
"2018-06-07 00:19:28.186 +0000",1528330768.186260,0.766001,-0.810581,0.456022,0.477708,0.724687,-0.496610,0.000000,0.000000,0.000000,-1,0.613404,-1.048081,-0.516355,0.296629,0.157591,-0.107165
"2018-06-07 00:19:28.196 +0000",1528330768.196333,0.751744,-0.810413,0.446692,0.470663,0.724572,-0.503459,0.000000,0.000000,0.000000,-1,0.546456,-0.527028,-0.205975,0.364466,0.273032,-0.111776
"2018-06-07 00:19:28.206 +0000",1528330768.206406,0.746023,-0.807812,0.440631,0.469053,0.722777,-0.507526,0.000000,0.000000,0.000000,-1,0.475601,-0.174396,-0.049895,0.030291,0.494814,0.187839
"2018-06-07 00:19:28.216 +0000",1528330768.216480,0.728300,-0.804354,0.434101,0.461646,0.720383,-0.517620,0.000000,0.000000,0.000000,-1,0.600308,-1.644832,-0.105013,-0.516531,-0.305222,-0.467533
"2018-06-07 00:19:28.227 +0000",1528330768.226553,0.701291,-0.800381,0.424602,0.449341,0.717622,-0.532081,0.000000,0.000000,0.000000,-1,0.740867,-2.015733,-0.308635,-0.476456,-0.152741,-0.427895
"2018-06-07 00:19:28.237 +0000",1528330768.236627,0.670706,-0.800382,0.411799,0.432860,0.717622,-0.545573,0.000000,0.000000,0.000000,-1,0.634226,-2.041548,-0.506385,-0.302962,0.062423,0.119746
"2018-06-07 00:19:28.247 +0000",1528330768.246700,0.642768,-0.799620,0.401215,0.417778,0.717091,-0.557889,0.000000,0.000000,0.000000,-1,0.470542,-2.005666,-0.532796,0.115181,0.056880,0.087445
"2018-06-07 00:19:28.257 +0000",1528330768.256774,0.617434,-0.798250,0.392927,0.404081,0.716136,-0.569094,0.000000,0.000000,0.000000,-1,0.445683,-1.903447,-0.317313,0.297107,0.072850,-0.052137
"2018-06-07 00:19:28.267 +0000",1528330768.266847,0.595587,-0.795130,0.388523,0.392803,0.713955,-0.579632,0.000000,0.000000,0.000000,-1,0.428441,-1.851061,0.006648,0.220508,0.011097,-0.116108
"2018-06-07 00:19:28.277 +0000",1528330768.276921,0.576069,-0.791711,0.387829,0.382744,0.711556,-0.589232,0.000000,0.000000,0.000000,-1,0.407882,-1.745529,0.482437,0.076317,0.105765,-0.114000
"2018-06-07 00:19:28.287 +0000",1528330768.286994,0.567559,-0.784396,0.398001,0.380504,0.706397,-0.596841,0.000000,0.000000,0.000000,-1,0.136401,-1.489112,1.199109,0.088201,0.257287,0.032281
"2018-06-07 00:19:28.297 +0000",1528330768.297068,0.572812,-0.777425,0.422268,0.386293,0.701447,-0.598957,0.000000,0.000000,0.000000,-1,-0.496120,-1.123716,1.866369,0.340910,0.358597,0.182575
"2018-06-07 00:19:28.307 +0000",1528330768.307141,0.572788,-0.776358,0.436524,0.386684,0.700686,-0.599595,0.000000,0.000000,0.000000,-1,-0.390269,-0.893232,0.637334,-0.213894,-0.471758,0.059098
"2018-06-07 00:19:28.317 +0000",1528330768.317214,0.564752,-0.779706,0.441137,0.380596,0.703070,-0.600698,0.000000,0.000000,0.000000,-1,-0.390633,-1.128380,0.166594,-0.660686,-0.480857,0.102224
"2018-06-07 00:19:28.327 +0000",1528330768.327288,0.552090,-0.784674,0.443762,0.371123,0.706594,-0.602487,0.000000,0.000000,0.000000,-1,-0.532644,-1.508297,-0.168711,-0.542434,-0.168509,0.205850
"2018-06-07 00:19:28.337 +0000",1528330768.337361,0.540509,-0.789551,0.445628,0.362343,0.710037,-0.603783,0.000000,0.000000,0.000000,-1,-0.459885,-1.136175,-0.115088,-0.055321,-0.052811,-0.030647
"2018-06-07 00:19:28.347 +0000",1528330768.347435,0.535591,-0.793205,0.449044,0.358043,0.712605,-0.603323,0.000000,0.000000,0.000000,-1,-0.426149,-0.606661,0.076764,0.249913,0.151683,-0.105250
"2018-06-07 00:19:28.358 +0000",1528330768.357508,0.533542,-0.797666,0.452143,0.355186,0.715728,-0.601311,0.000000,0.000000,0.000000,-1,-0.379549,-0.269704,0.121739,0.105996,0.267045,-0.174400
"2018-06-07 00:19:28.368 +0000",1528330768.367582,0.532884,-0.800890,0.455164,0.353616,0.717976,-0.599554,0.000000,0.000000,0.000000,-1,-0.390964,-0.303136,-0.028923,-0.175073,0.287014,-0.171548
"2018-06-07 00:19:28.378 +0000",1528330768.377655,0.529902,-0.805639,0.456325,0.350099,0.721274,-0.597657,0.000000,0.000000,0.000000,-1,-0.468235,-0.399184,-0.212960,-0.246232,0.327722,-0.095183
"2018-06-07 00:19:28.388 +0000",1528330768.387729,0.525145,-0.812065,0.456053,0.344921,0.725709,-0.595294,0.000000,0.000000,0.000000,-1,-0.570921,-0.461367,-0.374253,-0.165233,0.366026,-0.053205
"2018-06-07 00:19:28.398 +0000",1528330768.397802,0.517381,-0.822252,0.452795,0.336615,0.732680,-0.591497,0.000000,0.000000,0.000000,-1,-0.691624,-0.424838,-0.526612,-0.108313,0.367357,-0.049753
"2018-06-07 00:19:28.408 +0000",1528330768.407875,0.513625,-0.831755,0.451541,0.330955,0.739115,-0.586666,0.000000,0.000000,0.000000,-1,-0.801990,-0.224193,-0.540834,-0.046638,0.354315,-0.044956
"2018-06-07 00:19:28.418 +0000",1528330768.417949,0.511236,-0.842092,0.450411,0.325796,0.746038,-0.580761,0.000000,0.000000,0.000000,-1,-0.884735,-0.133134,-0.582330,-0.105856,0.294474,-0.050587
"2018-06-07 00:19:28.428 +0000",1528330768.428022,0.510532,-0.853750,0.450122,0.321116,0.753750,-0.573362,0.000000,0.000000,0.000000,-1,-1.035096,-0.018316,-0.575198,-0.180384,0.199451,0.029234
"2018-06-07 00:19:28.438 +0000",1528330768.438096,0.510377,-0.867501,0.449830,0.315933,0.762715,-0.564315,0.000000,0.000000,0.000000,-1,-1.081586,0.180730,-0.427149,-0.112747,0.073909,0.049056
"2018-06-07 00:19:28.448 +0000",1528330768.448169,0.517323,-0.878045,0.453422,0.315850,0.769492,-0.555085,0.000000,0.000000,0.000000,-1,-0.991584,0.511927,-0.288709,-0.013818,-0.111853,0.000474
"2018-06-07 00:19:28.458 +0000",1528330768.458243,0.528632,-0.886186,0.457269,0.318938,0.774665,-0.546051,0.000000,0.000000,0.000000,-1,-0.752489,0.910508,-0.151490,0.060732,-0.161369,-0.092591
"2018-06-07 00:19:28.468 +0000",1528330768.468316,0.541145,-0.891259,0.460444,0.323717,0.777863,-0.538642,0.000000,0.000000,0.000000,-1,-0.465384,1.010880,-0.074409,0.023299,-0.138871,-0.154657
"2018-06-07 00:19:28.478 +0000",1528330768.478390,0.549941,-0.895859,0.460469,0.326569,0.780746,-0.532717,0.000000,0.000000,0.000000,-1,-0.274330,0.920191,-0.049295,-0.031616,-0.112243,-0.112943
"2018-06-07 00:19:28.488 +0000",1528330768.488463,0.559077,-0.897849,0.461683,0.330596,0.781988,-0.528393,0.000000,0.000000,0.000000,-1,-0.189223,0.788643,-0.036965,-0.070770,-0.120687,-0.035084
"2018-06-07 00:19:28.499 +0000",1528330768.498536,0.567609,-0.899532,0.462979,0.334385,0.783036,-0.524443,0.000000,0.000000,0.000000,-1,-0.190382,0.730369,-0.015619,-0.119815,-0.155823,-0.008135
"2018-06-07 00:19:28.509 +0000",1528330768.508610,0.576020,-0.901464,0.464875,0.337959,0.784236,-0.520342,0.000000,0.000000,0.000000,-1,-0.224085,0.672013,0.003650,-0.108940,-0.216014,0.013400
"2018-06-07 00:19:28.519 +0000",1528330768.518683,0.581739,-0.903875,0.465472,0.339890,0.785730,-0.516820,0.000000,0.000000,0.000000,-1,-0.138412,0.579743,0.074178,-0.057678,-0.253350,-0.057598
"2018-06-07 00:19:28.529 +0000",1528330768.528757,0.590375,-0.904334,0.468816,0.344140,0.786014,-0.513565,0.000000,0.000000,0.000000,-1,-0.166449,0.597939,0.166801,-0.026589,-0.302539,-0.084061
"2018-06-07 00:19:28.539 +0000",1528330768.538830,0.598165,-0.904304,0.473712,0.348143,0.785995,-0.510888,0.000000,0.000000,0.000000,-1,-0.152305,0.273662,0.279843,-0.058424,-0.296203,-0.150199
"2018-06-07 00:19:28.549 +0000",1528330768.548904,0.600769,-0.903823,0.478414,0.349686,0.785697,-0.510292,0.000000,0.000000,0.000000,-1,-0.130499,-0.200324,0.234313,-0.092621,-0.249382,-0.273567
"2018-06-07 00:19:28.559 +0000",1528330768.558977,0.598998,-0.905603,0.480617,0.347993,0.786797,-0.509755,0.000000,0.000000,0.000000,-1,-0.210383,-0.296658,0.116971,-0.140717,-0.247430,-0.139431
"2018-06-07 00:19:28.569 +0000",1528330768.569051,0.599849,-0.906976,0.484871,0.347816,0.787644,-0.508566,0.000000,0.000000,0.000000,-1,-0.289413,-0.205855,0.138929,-0.052543,-0.251526,-0.054605
"2018-06-07 00:19:28.579 +0000",1528330768.579124,0.602776,-0.908735,0.490364,0.348517,0.788727,-0.506403,0.000000,0.000000,0.000000,-1,-0.333023,-0.111817,0.198462,0.023950,-0.241043,-0.049337
"2018-06-07 00:19:28.589 +0000",1528330768.589198,0.608134,-0.910153,0.496198,0.350586,0.789597,-0.503611,0.000000,0.000000,0.000000,-1,-0.311231,0.136324,0.202361,0.036041,-0.141480,-0.031515
"2018-06-07 00:19:28.599 +0000",1528330768.599271,0.612328,-0.912552,0.499953,0.351605,0.791068,-0.500584,0.000000,0.000000,0.000000,-1,-0.309705,0.173931,0.135777,0.006259,-0.050803,-0.027812
"2018-06-07 00:19:28.609 +0000",1528330768.609344,0.617867,-0.914976,0.505044,0.353261,0.792548,-0.497065,0.000000,0.000000,0.000000,-1,-0.399829,0.139744,0.113296,-0.064778,-0.084296,-0.070257
"2018-06-07 00:19:28.619 +0000",1528330768.619418,0.623831,-0.918250,0.511201,0.354701,0.794540,-0.492840,0.000000,0.000000,0.000000,-1,-0.500614,0.090064,0.113382,-0.106334,-0.146621,-0.101642
"2018-06-07 00:19:28.629 +0000",1528330768.629491,0.629657,-0.921540,0.517822,0.356025,0.796533,-0.488650,0.000000,0.000000,0.000000,-1,-0.481860,0.050493,0.137964,-0.057151,-0.148218,-0.213864
"2018-06-07 00:19:28.640 +0000",1528330768.639565,0.633704,-0.924281,0.523062,0.356706,0.798188,-0.485444,0.000000,0.000000,0.000000,-1,-0.374088,0.035191,0.193606,0.055190,-0.156418,-0.341979
"2018-06-07 00:19:28.650 +0000",1528330768.649638,0.638958,-0.925450,0.529350,0.358695,0.798891,-0.482814,0.000000,0.000000,0.000000,-1,-0.302044,0.010993,0.252531,0.128442,-0.166338,-0.349019
"2018-06-07 00:19:28.660 +0000",1528330768.659712,0.643602,-0.925583,0.535945,0.360869,0.798971,-0.481058,0.000000,0.000000,0.000000,-1,-0.229968,-0.088972,0.316614,0.072496,-0.186072,-0.306174
"2018-06-07 00:19:28.670 +0000",1528330768.669785,0.646626,-0.925901,0.541782,0.362169,0.799163,-0.479762,0.000000,0.000000,0.000000,-1,-0.244964,-0.181958,0.229250,-0.035555,-0.182982,-0.246404
"2018-06-07 00:19:28.680 +0000",1528330768.679859,0.647076,-0.927033,0.545761,0.361839,0.799843,-0.478876,0.000000,0.000000,0.000000,-1,-0.250808,-0.237740,0.176395,-0.072929,-0.222313,-0.195868
"2018-06-07 00:19:28.690 +0000",1528330768.689932,0.648146,-0.928150,0.550068,0.361811,0.800513,-0.477776,0.000000,0.000000,0.000000,-1,-0.247260,-0.212252,0.121603,-0.046840,-0.202033,-0.190971
"2018-06-07 00:19:28.700 +0000",1528330768.700005,0.651250,-0.929772,0.554537,0.362505,0.801484,-0.475617,0.000000,0.000000,0.000000,-1,-0.305135,0.015984,0.107341,-0.020587,-0.182663,-0.074081
"2018-06-07 00:19:28.710 +0000",1528330768.710079,0.655188,-0.934723,0.556960,0.361953,0.804435,-0.471033,0.000000,0.000000,0.000000,-1,-0.548140,0.234293,-0.280851,-0.062850,-0.138709,0.016917
"2018-06-07 00:19:28.720 +0000",1528330768.720152,0.658422,-0.944547,0.556661,0.358621,0.810232,-0.463587,0.000000,0.000000,0.000000,-1,-0.877293,0.473219,-0.668786,-0.026788,-0.078832,-0.023321
"2018-06-07 00:19:28.730 +0000",1528330768.730226,0.665011,-0.959572,0.555204,0.354116,0.818946,-0.451583,0.000000,0.000000,0.000000,-1,-1.222099,0.870318,-1.089570,0.030833,0.003472,-0.022614
"2018-06-07 00:19:28.740 +0000",1528330768.740299,0.673006,-0.978772,0.552420,0.347848,0.829812,-0.436360,0.000000,0.000000,0.000000,-1,-1.427149,1.028927,-1.352172,0.070258,0.028876,-0.050502
"2018-06-07 00:19:28.750 +0000",1528330768.750373,0.679849,-0.997454,0.551079,0.341019,0.840093,-0.421839,0.000000,0.000000,0.000000,-1,-1.382358,0.675707,-1.123114,0.071822,0.099849,-0.118674
"2018-06-07 00:19:28.760 +0000",1528330768.760446,0.687094,-1.012136,0.556218,0.336206,0.847966,-0.409776,0.000000,0.000000,0.000000,-1,-1.303695,0.227647,-0.506102,0.039313,0.094386,-0.034346
"2018-06-07 00:19:28.771 +0000",1528330768.770520,0.699853,-1.022208,0.568553,0.335889,0.853262,-0.398900,0.000000,0.000000,0.000000,-1,-1.136038,0.260226,-0.048166,-0.043317,0.165858,0.075520
"2018-06-07 00:19:28.781 +0000",1528330768.780593,0.717192,-1.028727,0.583896,0.339091,0.856643,-0.388816,0.000000,0.000000,0.000000,-1,-0.963138,0.462532,0.253207,-0.084559,0.195084,0.130957
"2018-06-07 00:19:28.791 +0000",1528330768.790667,0.736551,-1.031662,0.601056,0.344864,0.858153,-0.380315,0.000000,0.000000,0.000000,-1,-0.733078,0.431293,0.525803,-0.065231,0.117814,0.045186
"2018-06-07 00:19:28.801 +0000",1528330768.800740,0.751302,-1.031075,0.615857,0.350780,0.857852,-0.375554,0.000000,0.000000,0.000000,-1,-0.404087,0.161572,0.665175,-0.091411,0.040097,-0.199793
"2018-06-07 00:19:28.811 +0000",1528330768.810813,0.762903,-1.028389,0.628855,0.356704,0.856469,-0.373124,0.000000,0.000000,0.000000,-1,-0.239023,0.023728,0.661169,-0.091384,-0.098076,-0.278823
"2018-06-07 00:19:28.821 +0000",1528330768.820887,0.773641,-1.025888,0.641303,0.362185,0.855175,-0.370804,0.000000,0.000000,0.000000,-1,-0.287041,0.005086,0.624653,-0.030322,-0.111233,-0.047989
"2018-06-07 00:19:28.831 +0000",1528330768.830960,0.784801,-1.024346,0.655176,0.367232,0.854375,-0.367671,0.000000,0.000000,0.000000,-1,-0.435977,-0.112736,0.611743,0.015275,-0.042180,0.165263
"2018-06-07 00:19:28.841 +0000",1528330768.841034,0.787957,-1.029230,0.662793,0.365428,0.856903,-0.363563,0.000000,0.000000,0.000000,-1,-0.731421,-0.381525,-0.410225,0.017583,-0.095001,0.246299
"2018-06-07 00:19:28.851 +0000",1528330768.851107,0.777759,-1.045587,0.656569,0.351818,0.865219,-0.357235,0.000000,0.000000,0.000000,-1,-0.979126,-0.457712,-1.517794,-0.059689,-0.141129,0.326153
"2018-06-07 00:19:28.861 +0000",1528330768.861181,0.773653,-1.061060,0.652702,0.340952,0.872873,-0.349057,0.000000,0.000000,0.000000,-1,-0.923103,0.068646,-1.081830,0.233770,-0.054865,0.440564
"2018-06-07 00:19:28.871 +0000",1528330768.871254,0.774847,-1.072834,0.650325,0.334155,0.878558,-0.341282,0.000000,0.000000,0.000000,-1,-0.707730,0.376761,-0.853390,0.419400,-0.006228,0.349476
"2018-06-07 00:19:28.881 +0000",1528330768.881328,0.778810,-1.081781,0.649895,0.329971,0.882796,-0.334347,0.000000,0.000000,0.000000,-1,-0.600156,0.456859,-0.510273,0.413178,0.087831,0.290737
"2018-06-07 00:19:28.891 +0000",1528330768.891401,0.785493,-1.088040,0.652397,0.328284,0.885719,-0.328221,0.000000,0.000000,0.000000,-1,-0.482883,0.435545,-0.323441,0.204187,0.072411,0.204290
"2018-06-07 00:19:28.901 +0000",1528330768.901474,0.789382,-1.091630,0.651237,0.327298,0.887380,-0.324701,0.000000,0.000000,0.000000,-1,-0.103040,0.526458,-0.285323,-0.081753,0.010707,-0.008979
"2018-06-07 00:19:28.912 +0000",1528330768.911548,0.788762,-1.092233,0.644511,0.326717,0.887658,-0.324526,0.000000,0.000000,0.000000,-1,0.255895,0.505337,-0.246408,-0.244823,-0.076729,-0.159803
"2018-06-07 00:19:28.922 +0000",1528330768.921621,0.784305,-1.092119,0.634956,0.325339,0.887605,-0.326051,0.000000,0.000000,0.000000,-1,0.294132,0.392546,-0.287698,-0.340094,-0.075441,-0.053512
"2018-06-07 00:19:28.932 +0000",1528330768.931695,0.779479,-1.095803,0.627081,0.321461,0.889296,-0.325289,0.000000,0.000000,0.000000,-1,-0.144159,0.129280,-0.626288,-0.443531,0.072801,0.252963
"2018-06-07 00:19:28.942 +0000",1528330768.941768,0.770518,-1.107938,0.621671,0.310993,0.894780,-0.320389,0.000000,0.000000,0.000000,-1,-0.866394,-0.603910,-1.134472,-0.423542,0.242061,0.443497
"2018-06-07 00:19:28.952 +0000",1528330768.951842,0.757809,-1.127980,0.619252,0.294509,0.903549,-0.311225,0.000000,0.000000,0.000000,-1,-1.520158,-1.164936,-1.553033,-0.233489,0.171677,0.456153
"2018-06-07 00:19:28.962 +0000",1528330768.961915,0.739010,-1.154933,0.618169,0.272101,0.914768,-0.298593,0.000000,0.000000,0.000000,-1,-2.055628,-2.041071,-1.881351,-0.040045,-0.033588,0.327265
"2018-06-07 00:19:28.972 +0000",1528330768.971989,0.709240,-1.192760,0.622220,0.240373,0.929391,-0.280088,0.000000,0.000000,0.000000,-1,-3.292156,-3.780422,-2.587051,-0.063142,-0.534067,0.153501
"2018-06-07 00:19:28.982 +0000",1528330768.982062,0.691891,-1.244626,0.651163,0.204421,0.947276,-0.246731,0.000000,0.000000,0.000000,-1,-4.940275,-4.512757,-2.341236,-0.318542,-0.738246,0.318950
"2018-06-07 00:19:28.992 +0000",1528330768.992135,0.697300,-1.296641,0.693238,0.173847,0.962654,-0.207533,0.000000,0.000000,0.000000,-1,-4.521101,-2.725643,-2.573639,0.021816,0.925011,0.220381
"2018-06-07 00:19:29.002 +0000",1528330769.002209,0.702219,-1.336782,0.702643,0.149772,0.972743,-0.177016,0.000000,0.000000,0.000000,-1,-2.708624,0.197323,-2.061582,0.711282,1.130131,0.077392
"2018-06-07 00:19:29.012 +0000",1528330769.012282,0.716183,-1.357087,0.709873,0.139230,0.977251,-0.159973,0.000000,0.000000,0.000000,-1,-1.339473,0.682845,-0.963996,1.195608,-0.251558,-0.302414
"2018-06-07 00:19:29.022 +0000",1528330769.022356,0.726722,-1.369043,0.720953,0.133135,0.979717,-0.149752,0.000000,0.000000,0.000000,-1,-1.042372,-0.344501,-0.544936,0.085631,-0.177989,-0.077283
"2018-06-07 00:19:29.032 +0000",1528330769.032429,0.741984,-1.382138,0.748161,0.126723,0.982257,-0.138233,0.000000,0.000000,0.000000,-1,-1.416948,-1.327243,-0.474869,-0.559356,0.134076,0.368488
"2018-06-07 00:19:29.043 +0000",1528330769.042503,0.765811,-1.397205,0.787184,0.119707,0.984971,-0.124491,0.000000,0.000000,0.000000,-1,-1.530437,-1.418750,-0.456589,-0.477785,0.047210,0.397532
"2018-06-07 00:19:29.053 +0000",1528330769.052576,0.792710,-1.410757,0.825602,0.113492,0.987221,-0.111845,0.000000,0.000000,0.000000,-1,-1.349793,-0.959149,-0.511600,-0.362134,0.161506,0.040434
"2018-06-07 00:19:29.063 +0000",1528330769.062650,0.814901,-1.422827,0.854031,0.107266,0.989073,-0.101117,0.000000,0.000000,0.000000,-1,-1.052459,-0.458529,-0.585044,-0.137830,0.310488,-0.132709
"2018-06-07 00:19:29.073 +0000",1528330769.072723,0.813614,-1.433353,0.854273,0.099563,0.990569,-0.094097,0.000000,0.000000,0.000000,-1,-0.604529,-0.068731,-0.833410,0.050767,0.335755,-0.041157
"2018-06-07 00:19:29.083 +0000",1528330769.082796,0.776294,-1.442943,0.815638,0.089321,0.991838,-0.090963,0.000000,0.000000,0.000000,-1,-0.218372,0.151859,-1.086429,0.064182,0.401000,0.001958
"2018-06-07 00:19:29.093 +0000",1528330769.092870,0.714576,-1.451130,0.749786,0.078215,0.992848,-0.090160,0.000000,0.000000,0.000000,-1,-0.011304,0.441381,-1.141994,0.050080,0.322566,0.060055
"2018-06-07 00:19:29.103 +0000",1528330769.102943,0.651323,-1.457955,0.678653,0.068249,0.993640,-0.089531,0.000000,0.000000,0.000000,-1,-0.027230,0.831679,-1.031107,0.008304,0.234708,0.123467
"2018-06-07 00:19:29.113 +0000",1528330769.113017,0.598545,-1.464256,0.615427,0.059901,0.994330,-0.087832,0.000000,0.000000,0.000000,-1,-0.135645,1.026183,-0.888308,-0.046230,0.194894,0.089907
"2018-06-07 00:19:29.123 +0000",1528330769.123090,0.550200,-1.470149,0.557122,0.052521,0.994939,-0.085626,0.000000,0.000000,0.000000,-1,-0.160370,0.929151,-0.802482,-0.131790,0.155711,-0.062598
"2018-06-07 00:19:29.133 +0000",1528330769.133164,0.493372,-1.474506,0.490900,0.045519,0.995368,-0.084651,0.000000,0.000000,0.000000,-1,-0.003064,0.903095,-0.767421,-0.176592,0.132974,-0.137258
"2018-06-07 00:19:29.143 +0000",1528330769.143237,0.426347,-1.476187,0.413740,0.039054,0.995528,-0.085984,0.000000,0.000000,0.000000,-1,0.228498,1.001184,-0.706354,-0.150199,0.194017,-0.107543
"2018-06-07 00:19:29.153 +0000",1528330769.153311,0.356357,-1.475483,0.335558,0.033190,0.995461,-0.089161,0.000000,0.000000,0.000000,-1,0.386034,0.558984,-0.649917,-0.091189,0.184669,-0.133175
"2018-06-07 00:19:29.163 +0000",1528330769.163384,0.248178,-1.473947,0.239858,0.023745,0.995314,-0.093705,0.000000,0.000000,0.000000,-1,0.373161,-1.603733,-0.894972,-0.181139,0.342882,-0.804504
"2018-06-07 00:19:29.173 +0000",1528330769.173457,0.171008,-1.471447,0.153550,0.016874,0.995069,-0.097710,0.000000,0.000000,0.000000,-1,0.469796,1.805114,-0.632500,-0.313749,0.257922,0.575554
"2018-06-07 00:19:29.184 +0000",1528330769.183531,0.174456,-1.466066,0.132333,0.018140,0.994521,-0.102924,0.000000,0.000000,0.000000,-1,0.554626,2.365798,0.014324,0.425784,-0.311293,0.667255
"2018-06-07 00:19:29.194 +0000",1528330769.193604,0.196535,-1.461244,0.136185,0.021344,0.994005,-0.107202,0.000000,0.000000,0.000000,-1,0.436654,1.652466,0.145899,0.125033,-0.050600,-0.239295
"2018-06-07 00:19:29.204 +0000",1528330769.203678,0.222776,-1.456823,0.146672,0.025121,0.993512,-0.110892,0.000000,0.000000,0.000000,-1,0.402485,1.597149,0.225414,-0.067144,0.125201,-0.098535
"2018-06-07 00:19:29.214 +0000",1528330769.213751,0.262857,-1.452173,0.168107,0.030745,0.992972,-0.114257,0.000000,0.000000,0.000000,-1,0.371336,1.968450,0.406198,0.034609,0.009499,-0.035859
"2018-06-07 00:19:29.224 +0000",1528330769.223825,0.324936,-1.447959,0.207992,0.039110,0.992465,-0.116096,0.000000,0.000000,0.000000,-1,0.216879,2.325999,0.643158,0.092253,-0.124850,-0.023827
"2018-06-07 00:19:29.234 +0000",1528330769.233898,0.413460,-1.444276,0.271125,0.050690,0.992007,-0.115532,0.000000,0.000000,0.000000,-1,0.007420,2.635958,0.936039,0.144791,-0.255007,-0.001640
"2018-06-07 00:19:29.244 +0000",1528330769.243972,0.528960,-1.439786,0.359958,0.065914,0.991430,-0.112766,0.000000,0.000000,0.000000,-1,-0.165619,2.710787,1.302372,0.228779,-0.407126,-0.044400
"2018-06-07 00:19:29.254 +0000",1528330769.254045,0.661437,-1.434061,0.469182,0.083717,0.990666,-0.107549,0.000000,0.000000,0.000000,-1,-0.405705,2.272074,1.572708,0.266106,-0.473943,-0.173732
"2018-06-07 00:19:29.264 +0000",1528330769.264118,0.787336,-1.430808,0.577991,0.098841,0.990218,-0.098459,0.000000,0.000000,0.000000,-1,-0.845504,1.619218,1.205022,0.286642,-0.355055,-0.207266
"2018-06-07 00:19:29.274 +0000",1528330769.274192,0.889521,-1.431088,0.669216,0.108154,0.990257,-0.087688,0.000000,0.000000,0.000000,-1,-0.971478,1.058846,0.718564,0.231400,-0.169135,-0.189594
"2018-06-07 00:19:29.284 +0000",1528330769.284265,0.975165,-1.431655,0.746607,0.114794,0.990335,-0.077801,0.000000,0.000000,0.000000,-1,-0.852348,0.867782,0.547783,0.193418,-0.016947,-0.075993
"2018-06-07 00:19:29.294 +0000",1528330769.294339,1.037096,-1.433388,0.800449,0.117911,0.990574,-0.069674,0.000000,0.000000,0.000000,-1,-0.647642,0.834864,0.155684,0.137872,0.044017,-0.029066
"2018-06-07 00:19:29.304 +0000",1528330769.304412,1.071189,-1.435493,0.826912,0.118386,0.990861,-0.064614,0.000000,0.000000,0.000000,-1,-0.330985,0.768497,-0.038850,0.132072,0.189865,-0.058036
"2018-06-07 00:19:29.314 +0000",1528330769.314486,1.082078,-1.436433,0.830159,0.118259,0.990987,-0.062884,0.000000,0.000000,0.000000,-1,-0.000973,0.748660,-0.063328,0.108212,0.355601,-0.097669
"2018-06-07 00:19:29.325 +0000",1528330769.324559,1.072242,-1.435699,0.815291,0.118274,0.990888,-0.064392,0.000000,0.000000,0.000000,-1,0.269982,0.360584,-0.011295,0.174145,0.526766,-0.258988
"2018-06-07 00:19:29.335 +0000",1528330769.334632,1.049189,-1.434652,0.791356,0.117658,0.990747,-0.067618,0.000000,0.000000,0.000000,-1,0.341393,-0.009890,-0.100739,0.358981,0.667395,-0.296991
"2018-06-07 00:19:29.345 +0000",1528330769.344706,1.019441,-1.434122,0.761672,0.116042,0.990675,-0.071363,0.000000,0.000000,0.000000,-1,0.393346,-0.016068,-0.163261,0.410462,0.601168,-0.143771
"2018-06-07 00:19:29.355 +0000",1528330769.354779,0.975999,-1.432122,0.717723,0.114475,0.990400,-0.077445,0.000000,0.000000,0.000000,-1,0.704271,0.022155,-0.171392,0.313107,0.467943,-0.188515
"2018-06-07 00:19:29.365 +0000",1528330769.364853,0.909663,-1.427927,0.648874,0.112368,0.989811,-0.087414,0.000000,0.000000,0.000000,-1,1.122586,0.249730,-0.236226,0.002622,0.396083,-0.256504
"2018-06-07 00:19:29.375 +0000",1528330769.374926,0.827452,-1.420531,0.562703,0.110197,0.988731,-0.101298,0.000000,0.000000,0.000000,-1,1.530194,0.279462,-0.249981,-0.179579,0.275688,-0.269506
"2018-06-07 00:19:29.385 +0000",1528330769.385000,0.736535,-1.409191,0.469155,0.108071,0.986970,-0.119185,0.000000,0.000000,0.000000,-1,1.898762,0.107994,-0.215828,-0.259606,0.144728,-0.315004
"2018-06-07 00:19:29.395 +0000",1528330769.395073,0.650702,-1.394414,0.383921,0.106281,0.984485,-0.139602,0.000000,0.000000,0.000000,-1,2.067672,-0.293635,-0.141012,-0.218021,0.086377,-0.220704
"2018-06-07 00:19:29.405 +0000",1528330769.405147,0.574043,-1.377487,0.311308,0.104313,0.981374,-0.161304,0.000000,0.000000,0.000000,-1,2.159087,-0.584421,-0.109798,-0.162129,0.144603,-0.131177
"2018-06-07 00:19:29.415 +0000",1528330769.415220,0.506875,-1.358664,0.249956,0.102203,0.977584,-0.184062,0.000000,0.000000,0.000000,-1,2.243227,-0.758761,-0.102968,-0.075057,0.183747,-0.045354
"2018-06-07 00:19:29.425 +0000",1528330769.425293,0.442504,-1.340153,0.195321,0.097884,0.973519,-0.206576,0.000000,0.000000,0.000000,-1,2.169109,-1.197481,-0.244984,-0.021224,0.368110,-0.031202
"2018-06-07 00:19:29.435 +0000",1528330769.435367,0.385480,-1.319704,0.149942,0.093419,0.968642,-0.230220,0.000000,0.000000,0.000000,-1,2.356135,-1.277677,-0.106887,0.082896,0.334093,-0.077168
"2018-06-07 00:19:29.445 +0000",1528330769.445440,0.340009,-1.294786,0.115177,0.090881,0.962150,-0.256909,0.000000,0.000000,0.000000,-1,2.746897,-1.144817,0.145381,0.110779,0.282143,-0.146549
"2018-06-07 00:19:29.456 +0000",1528330769.455514,0.297985,-1.266314,0.084852,0.088017,0.954002,-0.286579,0.000000,0.000000,0.000000,-1,3.004360,-1.362025,0.018309,0.069210,0.453697,-0.270031
"2018-06-07 00:19:29.466 +0000",1528330769.465587,0.252017,-1.236714,0.053061,0.081763,0.944712,-0.317537,0.000000,0.000000,0.000000,-1,3.117669,-1.623137,-0.206444,0.141977,0.523245,-0.313963
"2018-06-07 00:19:29.476 +0000",1528330769.475661,0.208689,-1.206259,0.024475,0.073861,0.934289,-0.348776,0.000000,0.000000,0.000000,-1,3.176933,-1.612844,-0.265711,0.261527,0.483802,-0.197748
"2018-06-07 00:19:29.486 +0000",1528330769.485734,0.169798,-1.176305,-0.001211,0.064946,0.923192,-0.378806,0.000000,0.000000,0.000000,-1,3.052950,-1.407823,-0.285268,0.284374,0.448375,-0.052225
"2018-06-07 00:19:29.496 +0000",1528330769.495808,0.141538,-1.149134,-0.017308,0.057734,0.912410,-0.405179,0.000000,0.000000,0.000000,-1,2.658101,-1.322684,-0.169022,0.246328,0.290929,0.074140
"2018-06-07 00:19:29.506 +0000",1528330769.505881,0.120994,-1.125583,-0.025727,0.051978,0.902519,-0.427497,0.000000,0.000000,0.000000,-1,2.276566,-1.261856,-0.005549,0.233758,0.162728,0.151557
"2018-06-07 00:19:29.516 +0000",1528330769.515954,0.106166,-1.104499,-0.030053,0.047640,0.893239,-0.447046,0.000000,0.000000,0.000000,-1,2.054246,-1.004746,0.053793,0.178434,0.167109,0.246133
"2018-06-07 00:19:29.526 +0000",1528330769.526028,0.093736,-1.084683,-0.035325,0.043728,0.884155,-0.465138,0.000000,0.000000,0.000000,-1,1.977364,-0.639326,0.035671,0.080265,0.146591,0.319569
"2018-06-07 00:19:29.536 +0000",1528330769.536101,0.085172,-1.065077,-0.039212,0.041210,0.874826,-0.482676,0.000000,0.000000,0.000000,-1,1.951422,-0.497540,-0.023018,-0.013928,0.071310,0.295192
"2018-06-07 00:19:29.546 +0000",1528330769.546175,0.076164,-1.045148,-0.043267,0.038180,0.864999,-0.500315,0.000000,0.000000,0.000000,-1,2.004128,-0.580764,-0.037364,-0.145357,0.080268,0.236613
"2018-06-07 00:19:29.556 +0000",1528330769.556248,0.064930,-1.024616,-0.047578,0.033702,0.854515,-0.518329,0.000000,0.000000,0.000000,-1,2.059313,-0.806559,-0.083324,-0.276332,0.141045,0.234576
"2018-06-07 00:19:29.566 +0000",1528330769.566322,0.050204,-1.004374,-0.052147,0.026929,0.843826,-0.535937,0.000000,0.000000,0.000000,-1,2.013767,-1.086970,0.000940,-0.335981,0.119888,0.254000
"2018-06-07 00:19:29.576 +0000",1528330769.576395,0.037562,-0.984554,-0.052493,0.020775,0.833025,-0.552841,0.000000,0.000000,0.000000,-1,1.950262,-1.260949,0.085555,-0.329613,0.017683,0.262741
"2018-06-07 00:19:29.586 +0000",1528330769.586468,0.025179,-0.964906,-0.051537,0.014338,0.821996,-0.569310,0.000000,0.000000,0.000000,-1,1.954222,-1.318183,0.124103,-0.311426,-0.007985,0.287358
"2018-06-07 00:19:29.597 +0000",1528330769.596542,0.013019,-0.944483,-0.049733,0.007631,0.810194,-0.586109,0.000000,0.000000,0.000000,-1,2.054952,-1.365187,0.143097,-0.251894,0.005327,0.252796
"2018-06-07 00:19:29.607 +0000",1528330769.606615,-0.001939,-0.922936,-0.049962,-0.001170,0.797377,-0.603478,0.000000,0.000000,0.000000,-1,2.171865,-1.383356,0.102978,-0.210805,0.030855,0.189888
"2018-06-07 00:19:29.617 +0000",1528330769.616689,-0.013343,-0.901177,-0.047997,-0.008281,0.784058,-0.620629,0.000000,0.000000,0.000000,-1,2.144418,-1.250608,0.104503,-0.147450,0.006393,0.195977
"2018-06-07 00:19:29.627 +0000",1528330769.626762,-0.023286,-0.880545,-0.045918,-0.014826,0.771086,-0.636556,0.000000,0.000000,0.000000,-1,2.017344,-1.108169,0.084771,-0.117270,-0.046446,0.210867
"2018-06-07 00:19:29.637 +0000",1528330769.636836,-0.032083,-0.861334,-0.044202,-0.020896,0.758712,-0.651089,0.000000,0.000000,0.000000,-1,1.875691,-0.966800,0.048934,-0.115457,-0.071517,0.234325
"2018-06-07 00:19:29.647 +0000",1528330769.646909,-0.042191,-0.843218,-0.044293,-0.028052,0.746787,-0.664469,0.000000,0.000000,0.000000,-1,1.788576,-0.880239,0.030024,-0.098917,-0.081550,0.269724
"2018-06-07 00:19:29.657 +0000",1528330769.656983,-0.049293,-0.825510,-0.042744,-0.033416,0.734894,-0.677357,0.000000,0.000000,0.000000,-1,1.750739,-0.804572,0.023877,-0.074281,-0.087799,0.296741
"2018-06-07 00:19:29.667 +0000",1528330769.667056,-0.055138,-0.808332,-0.040498,-0.038065,0.723136,-0.689654,0.000000,0.000000,0.000000,-1,1.695629,-0.723717,0.078021,-0.047934,-0.109962,0.340945
"2018-06-07 00:19:29.677 +0000",1528330769.677129,-0.060428,-0.791798,-0.037845,-0.042429,0.711617,-0.701283,0.000000,0.000000,0.000000,-1,1.630399,-0.714073,0.091106,-0.058737,-0.116494,0.382832
"2018-06-07 00:19:29.687 +0000",1528330769.687203,-0.067906,-0.776575,-0.036121,-0.048401,0.700840,-0.711672,0.000000,0.000000,0.000000,-1,1.493612,-0.798060,0.133125,-0.007354,-0.101490,0.414355
"2018-06-07 00:19:29.697 +0000",1528330769.697276,-0.074643,-0.763181,-0.032278,-0.053890,0.691224,-0.720627,0.000000,0.000000,0.000000,-1,1.291538,-0.966891,0.207316,0.015117,-0.073213,0.434005
"2018-06-07 00:19:29.707 +0000",1528330769.707350,-0.083044,-0.750875,-0.027887,-0.060643,0.682278,-0.728571,0.000000,0.000000,0.000000,-1,1.241308,-1.184401,0.210025,0.025105,-0.037900,0.418620
"2018-06-07 00:19:29.717 +0000",1528330769.717423,-0.092281,-0.738728,-0.023274,-0.068129,0.673348,-0.736178,0.000000,0.000000,0.000000,-1,1.227481,-1.237253,0.238946,0.017271,-0.050835,0.391543
"2018-06-07 00:19:29.727 +0000",1528330769.727497,-0.103279,-0.727154,-0.019498,-0.077019,0.664746,-0.743087,0.000000,0.000000,0.000000,-1,1.185480,-1.232970,0.236903,0.022576,-0.091977,0.385116
"2018-06-07 00:19:29.738 +0000",1528330769.737570,-0.112722,-0.715752,-0.014822,-0.084880,0.656185,-0.749810,0.000000,0.000000,0.000000,-1,1.153950,-1.256134,0.242286,-0.013463,-0.149425,0.400337
"2018-06-07 00:19:29.748 +0000",1528330769.747643,-0.121561,-0.705215,-0.009316,-0.092338,0.648197,-0.755852,0.000000,0.000000,0.000000,-1,1.062105,-1.211612,0.297484,-0.041879,-0.211430,0.382149
"2018-06-07 00:19:29.758 +0000",1528330769.757717,-0.129601,-0.695526,-0.003612,-0.099219,0.640789,-0.761277,0.000000,0.000000,0.000000,-1,0.991584,-1.153677,0.309646,-0.094965,-0.231717,0.348877
"2018-06-07 00:19:29.768 +0000",1528330769.767790,-0.139209,-0.686801,0.000800,-0.107300,0.634067,-0.765796,0.000000,0.000000,0.000000,-1,0.917203,-1.131812,0.281913,-0.122650,-0.212955,0.309482
"2018-06-07 00:19:29.778 +0000",1528330769.777864,-0.146556,-0.678990,0.005334,-0.113643,0.628008,-0.769863,0.000000,0.000000,0.000000,-1,0.780950,-0.966183,0.223546,-0.163258,-0.183824,0.316662
"2018-06-07 00:19:29.788 +0000",1528330769.787937,-0.152165,-0.672556,0.009048,-0.118569,0.622988,-0.773192,0.000000,0.000000,0.000000,-1,0.647729,-0.728120,0.171837,-0.174339,-0.176882,0.318342
"2018-06-07 00:19:29.798 +0000",1528330769.798011,-0.156289,-0.667050,0.011914,-0.122289,0.618671,-0.776073,0.000000,0.000000,0.000000,-1,0.547080,-0.543779,0.125276,-0.139964,-0.171528,0.302303
"2018-06-07 00:19:29.808 +0000",1528330769.808084,-0.160820,-0.663269,0.013131,-0.126178,0.615696,-0.777814,0.000000,0.000000,0.000000,-1,0.380172,-0.398112,0.094888,-0.112866,-0.164082,0.279080
"2018-06-07 00:19:29.818 +0000",1528330769.818158,-0.162889,-0.661065,0.014497,-0.128006,0.613958,-0.778889,0.000000,0.000000,0.000000,-1,0.185986,-0.259095,0.061316,-0.079483,-0.146276,0.256092
"2018-06-07 00:19:29.828 +0000",1528330769.828231,-0.164392,-0.660887,0.015153,-0.129195,0.613817,-0.778804,0.000000,0.000000,0.000000,-1,-0.029319,-0.166327,0.048096,-0.032014,-0.172777,0.247416
"2018-06-07 00:19:29.838 +0000",1528330769.838304,-0.165387,-0.662873,0.015377,-0.129769,0.615384,-0.777470,0.000000,0.000000,0.000000,-1,-0.245736,-0.104349,0.046621,-0.039909,-0.236203,0.257970
"2018-06-07 00:19:29.848 +0000",1528330769.848378,-0.166566,-0.667217,0.014780,-0.130241,0.618802,-0.774673,0.000000,0.000000,0.000000,-1,-0.425883,0.048623,0.098033,-0.086984,-0.300046,0.239029
"2018-06-07 00:19:29.858 +0000",1528330769.858451,-0.165047,-0.672657,0.015063,-0.128509,0.623067,-0.771538,0.000000,0.000000,0.000000,-1,-0.565795,0.167834,0.111608,-0.142731,-0.356923,0.205605
"2018-06-07 00:19:29.869 +0000",1528330769.868525,-0.163054,-0.679850,0.014934,-0.126240,0.628676,-0.767351,0.000000,0.000000,0.000000,-1,-0.759014,0.205762,0.101405,-0.140895,-0.304350,0.159410
"2018-06-07 00:19:29.879 +0000",1528330769.878598,-0.161646,-0.689209,0.014090,-0.124207,0.635927,-0.761687,0.000000,0.000000,0.000000,-1,-0.978382,0.189858,0.083575,-0.099212,-0.233858,0.068114
"2018-06-07 00:19:29.889 +0000",1528330769.888672,-0.161888,-0.700662,0.012345,-0.123210,0.644724,-0.754419,0.000000,0.000000,0.000000,-1,-1.131965,0.147566,0.119300,-0.001088,-0.211817,-0.042746
"2018-06-07 00:19:29.899 +0000",1528330769.898745,-0.160908,-0.713022,0.012168,-0.121184,0.654123,-0.746616,0.000000,0.000000,0.000000,-1,-1.237631,0.090912,0.208656,0.098784,-0.199594,-0.160809
"2018-06-07 00:19:29.909 +0000",1528330769.908818,-0.160716,-0.726349,0.012854,-0.119635,0.664145,-0.737968,0.000000,0.000000,0.000000,-1,-1.319879,-0.073145,0.270754,0.126120,-0.168982,-0.271264
"2018-06-07 00:19:29.919 +0000",1528330769.918892,-0.161286,-0.740381,0.014281,-0.118547,0.674569,-0.728629,0.000000,0.000000,0.000000,-1,-1.369740,-0.176797,0.348013,0.124559,-0.136712,-0.350000
"2018-06-07 00:19:29.929 +0000",1528330769.928965,-0.162330,-0.755717,0.016166,-0.117622,0.685811,-0.718210,0.000000,0.000000,0.000000,-1,-1.473486,-0.165448,0.452621,0.100929,-0.179173,-0.298056
"2018-06-07 00:19:29.939 +0000",1528330769.939039,-0.160458,-0.773792,0.019664,-0.114278,0.698852,-0.706076,0.000000,0.000000,0.000000,-1,-1.844192,-0.005562,0.561500,0.071752,-0.244842,-0.009165
"2018-06-07 00:19:29.949 +0000",1528330769.949112,-0.153525,-0.795357,0.024233,-0.107050,0.714114,-0.691794,0.000000,0.000000,0.000000,-1,-2.117527,0.485025,0.670042,-0.043646,-0.335528,0.375403
"2018-06-07 00:19:29.959 +0000",1528330769.959186,-0.143203,-0.817026,0.028421,-0.097672,0.729114,-0.677385,0.000000,0.000000,0.000000,-1,-2.026632,0.771155,0.560950,-0.297714,-0.349521,0.431184
"2018-06-07 00:19:29.969 +0000",1528330769.969259,-0.138272,-0.832821,0.029298,-0.092732,0.739832,-0.666368,0.000000,0.000000,0.000000,-1,-1.284317,0.311291,0.242749,-0.646313,-0.145609,-0.134734
"2018-06-07 00:19:29.979 +0000",1528330769.979333,-0.142018,-0.840543,0.028608,-0.094416,0.745006,-0.660340,0.000000,0.000000,0.000000,-1,-0.635859,-0.526868,0.020469,-0.684484,0.290685,-0.741745
"2018-06-07 00:19:29.989 +0000",1528330769.989406,-0.149919,-0.845242,0.027392,-0.099106,0.748132,-0.656104,0.000000,0.000000,0.000000,-1,-0.457066,-0.639371,0.003598,-0.292373,0.837058,-0.636010
"2018-06-07 00:19:29.999 +0000",1528330769.999479,-0.149434,-0.852255,0.027742,-0.098005,0.752767,-0.650948,0.000000,0.000000,0.000000,-1,-0.833352,0.320436,0.193338,0.086759,1.327235,-0.224663
"2018-06-07 00:19:30.010 +0000",1528330770.009553,-0.135687,-0.865436,0.029987,-0.087697,0.761378,-0.642346,0.000000,0.000000,0.000000,-1,-1.323834,1.524441,0.451816,0.326420,1.417867,0.125180
"2018-06-07 00:19:30.020 +0000",1528330770.019626,-0.113405,-0.880301,0.035425,-0.072075,0.770931,-0.632825,0.000000,0.000000,0.000000,-1,-1.435109,1.819045,0.544358,0.205315,1.048085,0.159375
"2018-06-07 00:19:30.030 +0000",1528330770.029700,-0.092605,-0.895496,0.040825,-0.057807,0.780519,-0.622450,0.000000,0.000000,0.000000,-1,-1.479300,1.572327,0.448009,-0.113411,0.381880,0.253492
"2018-06-07 00:19:30.040 +0000",1528330770.039773,-0.077751,-0.910738,0.042931,-0.047626,0.789956,-0.611307,0.000000,0.000000,0.000000,-1,-1.493829,1.226453,0.194260,-0.351834,-0.189309,0.240961
"2018-06-07 00:19:30.050 +0000",1528330770.049847,-0.068548,-0.926155,0.041239,-0.041159,0.799315,-0.599496,0.000000,0.000000,0.000000,-1,-1.474824,1.081054,0.062564,-0.277323,-0.479720,0.153635
"2018-06-07 00:19:30.060 +0000",1528330770.059920,-0.056927,-0.941677,0.040803,-0.033479,0.808546,-0.587475,0.000000,0.000000,0.000000,-1,-1.567514,1.254192,0.075112,-0.001616,-0.607374,0.243329
"2018-06-07 00:19:30.070 +0000",1528330770.069993,-0.041459,-0.958681,0.040634,-0.023816,0.818434,-0.574102,0.000000,0.000000,0.000000,-1,-1.725417,1.648962,0.072320,0.174313,-0.595625,0.457556
"2018-06-07 00:19:30.080 +0000",1528330770.080067,-0.022838,-0.977098,0.040888,-0.012775,0.828878,-0.559279,0.000000,0.000000,0.000000,-1,-1.854861,1.856050,0.079673,0.211307,-0.469686,0.527221
"2018-06-07 00:19:30.090 +0000",1528330770.090140,-0.004560,-0.996914,0.041780,-0.002475,0.839800,-0.542885,0.000000,0.000000,0.000000,-1,-1.895112,1.736035,0.138576,0.211002,-0.274584,0.428811
"2018-06-07 00:19:30.100 +0000",1528330770.100214,0.013699,-1.015706,0.044909,0.007219,0.849853,-0.526965,0.000000,0.000000,0.000000,-1,-1.854090,1.471481,0.163528,0.148542,-0.003463,0.230792
"2018-06-07 00:19:30.110 +0000",1528330770.110287,0.029288,-1.033616,0.049842,0.014985,0.859155,-0.511490,0.000000,0.000000,0.000000,-1,-1.751281,1.004906,0.237230,0.131210,0.367331,0.011124
"2018-06-07 00:19:30.120 +0000",1528330770.120361,0.041479,-1.049943,0.057070,0.020635,0.867395,-0.497186,0.000000,0.000000,0.000000,-1,-1.601254,0.451667,0.327783,0.143245,0.769202,-0.061896
"2018-06-07 00:19:30.130 +0000",1528330770.130434,0.051043,-1.066732,0.066246,0.024642,0.875627,-0.482352,0.000000,0.000000,0.000000,-1,-1.593422,0.120777,0.442972,0.171403,0.926665,-0.029550
"2018-06-07 00:19:30.141 +0000",1528330770.140508,0.064029,-1.082817,0.079626,0.029998,0.883282,-0.467874,0.000000,0.000000,0.000000,-1,-1.642733,0.142063,0.570073,0.231858,0.755359,-0.017691
"2018-06-07 00:19:30.151 +0000",1528330770.150581,0.081558,-1.098979,0.095737,0.037027,0.890744,-0.452987,0.000000,0.000000,0.000000,-1,-1.653933,0.390975,0.629983,0.199103,0.377231,-0.031937
"2018-06-07 00:19:30.161 +0000",1528330770.160654,0.102874,-1.114762,0.112773,0.045224,0.897806,-0.438054,0.000000,0.000000,0.000000,-1,-1.617170,0.671155,0.595218,0.061984,0.073782,-0.018916
"2018-06-07 00:19:30.171 +0000",1528330770.170728,0.125907,-1.130936,0.129314,0.053470,0.904811,-0.422434,0.000000,0.000000,0.000000,-1,-1.552942,0.850448,0.552567,-0.028232,-0.094539,0.026514
"2018-06-07 00:19:30.181 +0000",1528330770.180801,0.149837,-1.145433,0.146483,0.061598,0.910889,-0.408019,0.000000,0.000000,0.000000,-1,-1.516715,0.813487,0.489989,-0.056059,-0.175446,0.086349
"2018-06-07 00:19:30.191 +0000",1528330770.190875,0.171798,-1.159167,0.161603,0.068398,0.916470,-0.394203,0.000000,0.000000,0.000000,-1,-1.412671,0.811087,0.345607,-0.136284,-0.149121,0.115517
"2018-06-07 00:19:30.201 +0000",1528330770.200948,0.191718,-1.171432,0.173950,0.074088,0.921308,-0.381698,0.000000,0.000000,0.000000,-1,-1.239589,0.881215,0.229245,-0.149330,-0.097151,0.083907
"2018-06-07 00:19:30.211 +0000",1528330770.211022,0.211326,-1.183362,0.184175,0.079247,0.925881,-0.369399,0.000000,0.000000,0.000000,-1,-1.094392,1.059687,0.174574,-0.105919,-0.036492,0.044524
"2018-06-07 00:19:30.221 +0000",1528330770.221095,0.233135,-1.193339,0.195258,0.085145,0.929605,-0.358576,0.000000,0.000000,0.000000,-1,-1.052572,1.166237,0.186620,-0.032273,0.027930,0.025522
"2018-06-07 00:19:30.231 +0000",1528330770.231168,0.257283,-1.203456,0.208271,0.091380,0.933286,-0.347302,0.000000,0.000000,0.000000,-1,-1.108555,1.192269,0.224472,0.020665,0.101321,0.012555
"2018-06-07 00:19:30.241 +0000",1528330770.241242,0.284601,-1.213977,0.224755,0.098070,0.937013,-0.335233,0.000000,0.000000,0.000000,-1,-1.175304,1.181883,0.300965,0.101698,0.136871,0.030393
"2018-06-07 00:19:30.251 +0000",1528330770.251315,0.316060,-1.225614,0.245710,0.105169,0.941014,-0.321595,0.000000,0.000000,0.000000,-1,-1.201195,1.152882,0.393445,0.173731,0.145595,0.051515
"2018-06-07 00:19:30.261 +0000",1528330770.261389,0.349505,-1.235666,0.269977,0.112619,0.944367,-0.308996,0.000000,0.000000,0.000000,-1,-1.205636,1.008856,0.442516,0.194770,0.127273,0.075277
"2018-06-07 00:19:30.271 +0000",1528330770.271462,0.381960,-1.245124,0.295484,0.119251,0.947436,-0.296876,0.000000,0.000000,0.000000,-1,-1.150588,0.753331,0.417983,0.147686,0.080915,0.062424
"2018-06-07 00:19:30.282 +0000",1528330770.281536,0.408555,-1.253390,0.318149,0.123988,0.950048,-0.286402,0.000000,0.000000,0.000000,-1,-0.982448,0.427114,0.310160,0.074514,-0.004232,-0.020330
"2018-06-07 00:19:30.292 +0000",1528330770.291609,0.430653,-1.261611,0.337801,0.127021,0.952582,-0.276486,0.000000,0.000000,0.000000,-1,-0.841989,0.323579,0.223485,0.030572,-0.105322,-0.035572
"2018-06-07 00:19:30.302 +0000",1528330770.301682,0.452310,-1.268104,0.355708,0.130272,0.954538,-0.268101,0.000000,0.000000,0.000000,-1,-0.803165,0.516974,0.204597,0.020790,-0.193383,0.035114
"2018-06-07 00:19:30.312 +0000",1528330770.311756,0.476380,-1.274209,0.373479,0.134012,0.956339,-0.259705,0.000000,0.000000,0.000000,-1,-0.765477,0.755351,0.191221,-0.041773,-0.243220,0.061798
"2018-06-07 00:19:30.322 +0000",1528330770.321829,0.501598,-1.279951,0.391425,0.137875,0.958002,-0.251424,0.000000,0.000000,0.000000,-1,-0.741325,0.796053,0.186982,-0.083951,-0.267038,0.032414
"2018-06-07 00:19:30.332 +0000",1528330770.331903,0.529335,-1.286671,0.412178,0.141541,0.959907,-0.241940,0.000000,0.000000,0.000000,-1,-0.754043,0.752022,0.207320,-0.099381,-0.249626,0.035840
"2018-06-07 00:19:30.342 +0000",1528330770.341976,0.558458,-1.291806,0.434986,0.145911,0.961334,-0.233532,0.000000,0.000000,0.000000,-1,-0.764180,0.707687,0.301871,-0.055640,-0.229874,0.035412
"2018-06-07 00:19:30.352 +0000",1528330770.352050,0.591803,-1.296345,0.462051,0.151180,0.962574,-0.224913,0.000000,0.000000,0.000000,-1,-0.780636,0.740211,0.389132,0.023625,-0.190174,0.040419
"2018-06-07 00:19:30.362 +0000",1528330770.362123,0.627321,-1.300357,0.490895,0.156803,0.963654,-0.216274,0.000000,0.000000,0.000000,-1,-0.756602,0.774259,0.401008,0.070889,-0.133072,0.045452
"2018-06-07 00:19:30.372 +0000",1528330770.372197,0.662487,-1.304751,0.519275,0.161704,0.964818,-0.207287,0.000000,0.000000,0.000000,-1,-0.655167,0.750706,0.325412,0.102837,-0.098607,0.008068
"2018-06-07 00:19:30.382 +0000",1528330770.382270,0.690067,-1.307807,0.540179,0.165481,0.965617,-0.200474,0.000000,0.000000,0.000000,-1,-0.554421,0.729546,0.202497,0.118211,-0.107707,0.005878
"2018-06-07 00:19:30.392 +0000",1528330770.392343,0.713290,-1.311033,0.557106,0.168052,0.966451,-0.194220,0.000000,0.000000,0.000000,-1,-0.517858,0.660917,0.100027,0.135461,-0.162725,0.043905
"2018-06-07 00:19:30.402 +0000",1528330770.402417,0.732225,-1.314580,0.571024,0.169405,0.967356,-0.188452,0.000000,0.000000,0.000000,-1,-0.492866,0.499985,0.011299,0.116086,-0.211176,0.027197
"2018-06-07 00:19:30.412 +0000",1528330770.412490,0.749499,-1.319254,0.585251,0.169554,0.968530,-0.182186,0.000000,0.000000,0.000000,-1,-0.470040,0.269817,-0.060416,0.061251,-0.224007,-0.029469
"2018-06-07 00:19:30.423 +0000",1528330770.422564,0.759670,-1.323321,0.594503,0.168683,0.969534,-0.177594,0.000000,0.000000,0.000000,-1,-0.444149,0.085741,-0.126625,0.017352,-0.194357,-0.102481
"2018-06-07 00:19:30.433 +0000",1528330770.432637,0.768508,-1.327693,0.602232,0.167298,0.970596,-0.173047,0.000000,0.000000,0.000000,-1,-0.444908,0.168273,-0.174787,0.022598,-0.148360,-0.096271
"2018-06-07 00:19:30.443 +0000",1528330770.442711,0.779348,-1.332324,0.610304,0.166003,0.971700,-0.168024,0.000000,0.000000,0.000000,-1,-0.469129,0.335119,-0.187154,0.055951,-0.094976,-0.046301
"2018-06-07 00:19:30.453 +0000",1528330770.452784,0.794743,-1.337829,0.621882,0.164749,0.972986,-0.161698,0.000000,0.000000,0.000000,-1,-0.484891,0.402070,-0.194453,0.053162,-0.043954,-0.046508
"2018-06-07 00:19:30.463 +0000",1528330770.462857,0.807607,-1.342873,0.630958,0.163266,0.974138,-0.156170,0.000000,0.000000,0.000000,-1,-0.499352,0.397769,-0.225626,0.022998,-0.002687,-0.060718
"2018-06-07 00:19:30.473 +0000",1528330770.472931,0.821082,-1.348423,0.640609,0.161395,0.975377,-0.150269,0.000000,0.000000,0.000000,-1,-0.551583,0.408763,-0.264197,0.012174,0.019801,-0.073425
"2018-06-07 00:19:30.483 +0000",1528330770.483004,0.836947,-1.354911,0.652531,0.159055,0.976787,-0.143448,0.000000,0.000000,0.000000,-1,-0.649942,0.422971,-0.314486,0.035265,0.027913,-0.054672
"2018-06-07 00:19:30.493 +0000",1528330770.493078,0.858221,-1.362952,0.669244,0.156121,0.978478,-0.134891,0.000000,0.000000,0.000000,-1,-0.711481,0.496624,-0.379745,0.052955,0.019905,-0.045407
"2018-06-07 00:19:30.503 +0000",1528330770.503150,0.876214,-1.370871,0.681733,0.152563,0.980081,-0.127096,0.000000,0.000000,0.000000,-1,-0.692100,0.603476,-0.454774,0.052912,0.006567,-0.074015
"2018-06-07 00:19:30.513 +0000",1528330770.513225,0.893974,-1.379153,0.692382,0.148463,0.981692,-0.119278,0.000000,0.000000,0.000000,-1,-0.679143,0.768455,-0.521014,0.062658,0.012372,-0.077622
"2018-06-07 00:19:30.523 +0000",1528330770.523298,0.902668,-1.382952,0.692890,0.146564,0.982409,-0.115670,0.000000,0.000000,0.000000,-1,-0.702882,0.864173,-0.587371,0.065746,0.051053,-0.057013
"2018-06-07 00:19:30.533 +0000",1528330770.533370,0.925063,-1.392842,0.706779,0.141349,0.984208,-0.106505,0.000000,0.000000,0.000000,-1,-0.724612,0.850013,-0.628237,0.061044,0.116302,-0.101670
"2018-06-07 00:19:30.543 +0000",1528330770.543445,0.945337,-1.402259,0.719095,0.135957,0.985831,-0.098186,0.000000,0.000000,0.000000,-1,-0.721453,0.799502,-0.623013,0.065367,0.173867,-0.173130
"2018-06-07 00:19:30.554 +0000",1528330770.553518,0.966077,-1.411267,0.732026,0.130651,0.987302,-0.090291,0.000000,0.000000,0.000000,-1,-0.672226,0.789679,-0.603792,0.087382,0.228671,-0.235301
"2018-06-07 00:19:30.564 +0000",1528330770.563591,0.983738,-1.419620,0.742017,0.125352,0.988595,-0.083397,0.000000,0.000000,0.000000,-1,-0.562988,0.762526,-0.600895,0.134413,0.270942,-0.283592
"2018-06-07 00:19:30.574 +0000",1528330770.573665,0.998069,-1.427860,0.749217,0.119682,0.989802,-0.077174,0.000000,0.000000,0.000000,-1,-0.435600,0.688355,-0.630445,0.206749,0.276601,-0.304082
"2018-06-07 00:19:30.584 +0000",1528330770.583739,1.000646,-1.435122,0.745944,0.113824,0.990810,-0.072982,0.000000,0.000000,0.000000,-1,-0.327288,0.525073,-0.626865,0.278693,0.288105,-0.252091
"2018-06-07 00:19:30.594 +0000",1528330770.593812,0.998681,-1.441578,0.742181,0.108299,0.991663,-0.069740,0.000000,0.000000,0.000000,-1,-0.306511,0.029655,-0.535848,0.386192,0.388739,-0.170525
"2018-06-07 00:19:30.604 +0000",1528330770.603885,0.997055,-1.446247,0.744015,0.104294,0.992254,-0.067401,0.000000,0.000000,0.000000,-1,-0.245776,-0.415677,-0.320003,0.555328,0.539576,-0.056729
"2018-06-07 00:19:30.614 +0000",1528330770.613959,0.991356,-1.448372,0.739741,0.102144,0.992515,-0.066840,0.000000,0.000000,0.000000,-1,0.097267,-0.004745,-0.179759,0.493864,0.542580,0.021491
"2018-06-07 00:19:30.624 +0000",1528330770.624032,0.961166,-1.447138,0.706507,0.101083,0.992364,-0.070593,0.000000,0.000000,0.000000,-1,0.486062,0.320965,-0.105482,0.221671,0.412574,-0.213861
"2018-06-07 00:19:30.634 +0000",1528330770.634106,0.924934,-1.444206,0.668025,0.100783,0.991998,-0.075960,0.000000,0.000000,0.000000,-1,0.553869,0.121002,-0.020168,0.054887,0.336249,-0.385649
"2018-06-07 00:19:30.644 +0000",1528330770.644179,0.894141,-1.440805,0.638656,0.101028,0.991563,-0.081140,0.000000,0.000000,0.000000,-1,0.489632,-0.262587,0.048780,-0.099304,0.267791,-0.340796
"2018-06-07 00:19:30.654 +0000",1528330770.654253,0.858702,-1.437151,0.608123,0.100832,0.991083,-0.087036,0.000000,0.000000,0.000000,-1,0.657273,-0.592374,0.006563,-0.244951,0.242239,-0.343689
"2018-06-07 00:19:30.664 +0000",1528330770.664326,0.796092,-1.430789,0.552057,0.099694,0.990215,-0.097585,0.000000,0.000000,0.000000,-1,1.112763,-0.721430,-0.068000,-0.308572,0.239094,-0.380489
"2018-06-07 00:19:30.674 +0000",1528330770.674399,0.712510,-1.420323,0.475261,0.097972,0.988700,-0.113406,0.000000,0.000000,0.000000,-1,1.641314,-0.764865,-0.093001,-0.251201,0.221596,-0.375806
"2018-06-07 00:19:30.684 +0000",1528330770.684473,0.623696,-1.404939,0.393818,0.096402,0.986277,-0.133984,0.000000,0.000000,0.000000,-1,2.092583,-0.854977,-0.032984,-0.120984,0.208120,-0.328922
"2018-06-07 00:19:30.695 +0000",1528330770.694546,0.545472,-1.385407,0.323905,0.095617,0.982864,-0.157553,0.000000,0.000000,0.000000,-1,2.398324,-0.961188,0.104765,-0.002173,0.183426,-0.246347
"2018-06-07 00:19:30.705 +0000",1528330770.704620,0.483126,-1.361985,0.271301,0.096287,0.978278,-0.183547,0.000000,0.000000,0.000000,-1,2.559717,-1.107587,0.306190,0.099574,0.146585,-0.158616
"2018-06-07 00:19:30.715 +0000",1528330770.714693,0.435595,-1.336351,0.235519,0.098011,0.972643,-0.210590,0.000000,0.000000,0.000000,-1,2.645907,-1.304489,0.459238,0.149319,0.156583,-0.134396
"2018-06-07 00:19:30.725 +0000",1528330770.724767,0.394967,-1.309667,0.208611,0.099331,0.966099,-0.238276,0.000000,0.000000,0.000000,-1,2.701733,-1.475588,0.459688,0.152515,0.206279,-0.169225
"2018-06-07 00:19:30.735 +0000",1528330770.734840,0.355790,-1.283187,0.184315,0.098801,0.958925,-0.265879,0.000000,0.000000,0.000000,-1,2.726076,-1.616532,0.316161,0.138091,0.239653,-0.184500
"2018-06-07 00:19:30.745 +0000",1528330770.744913,0.314417,-1.256735,0.159056,0.095534,0.951087,-0.293765,0.000000,0.000000,0.000000,-1,2.723567,-1.725450,0.109326,0.106874,0.263498,-0.141278
"2018-06-07 00:19:30.755 +0000",1528330770.754987,0.273720,-1.230494,0.133315,0.090220,0.942654,-0.321333,0.000000,0.000000,0.000000,-1,2.732161,-1.566587,-0.072015,0.086477,0.264774,-0.023592
"2018-06-07 00:19:30.765 +0000",1528330770.765059,0.237813,-1.204466,0.109427,0.084379,0.933648,-0.348098,0.000000,0.000000,0.000000,-1,2.693656,-1.254571,-0.157071,0.124972,0.211432,0.130050
"2018-06-07 00:19:30.775 +0000",1528330770.775134,0.208541,-1.179433,0.088889,0.078970,0.924390,-0.373173,0.000000,0.000000,0.000000,-1,2.604348,-0.945104,-0.191463,0.146372,0.145953,0.250966
"2018-06-07 00:19:30.785 +0000",1528330770.785207,0.184387,-1.155297,0.071564,0.074004,0.914915,-0.396795,0.000000,0.000000,0.000000,-1,2.434052,-0.785297,-0.192759,0.122743,0.091433,0.312170
"2018-06-07 00:19:30.795 +0000",1528330770.795280,0.164014,-1.133173,0.057688,0.069194,0.905762,-0.418091,0.000000,0.000000,0.000000,-1,2.201786,-0.770644,-0.176050,0.058339,0.047013,0.359818
"2018-06-07 00:19:30.805 +0000",1528330770.805354,0.145962,-1.113265,0.046760,0.064246,0.897146,-0.437029,0.000000,0.000000,0.000000,-1,1.968489,-0.836161,-0.152042,-0.041694,0.012736,0.380342
"2018-06-07 00:19:30.815 +0000",1528330770.815427,0.129358,-1.095411,0.038431,0.059039,0.889116,-0.453850,0.000000,0.000000,0.000000,-1,1.829649,-0.934407,-0.114362,-0.130679,-0.007982,0.358177
"2018-06-07 00:19:30.826 +0000",1528330770.825500,0.114216,-1.077289,0.031754,0.053988,0.880677,-0.470624,0.000000,0.000000,0.000000,-1,1.832504,-0.901610,-0.079853,-0.210406,-0.025589,0.322110
"2018-06-07 00:19:30.836 +0000",1528330770.835574,0.100713,-1.058342,0.026120,0.049297,0.871544,-0.487826,0.000000,0.000000,0.000000,-1,1.925815,-0.836641,-0.065894,-0.263195,-0.031288,0.269076
"2018-06-07 00:19:30.846 +0000",1528330770.845648,0.087967,-1.038281,0.020956,0.044603,0.861533,-0.505733,0.000000,0.000000,0.000000,-1,2.031880,-0.824274,-0.065025,-0.268144,-0.014944,0.223293
"2018-06-07 00:19:30.856 +0000",1528330770.855721,0.075954,-1.017744,0.016730,0.039859,0.850925,-0.523766,0.000000,0.000000,0.000000,-1,2.123000,-0.836244,-0.029773,-0.214404,-0.007160,0.194192
"2018-06-07 00:19:30.866 +0000",1528330770.865795,0.064538,-0.995766,0.013917,0.035075,0.839176,-0.542722,0.000000,0.000000,0.000000,-1,2.205731,-0.921819,0.012815,-0.154963,0.011014,0.149519
"2018-06-07 00:19:30.876 +0000",1528330770.875868,0.053239,-0.973077,0.012471,0.029947,0.826621,-0.561956,0.000000,0.000000,0.000000,-1,2.267388,-1.023963,0.066159,-0.086572,0.043023,0.126516
"2018-06-07 00:19:30.886 +0000",1528330770.885942,0.042617,-0.949593,0.012273,0.024796,0.813179,-0.581481,0.000000,0.000000,0.000000,-1,2.350048,-1.037086,0.108957,-0.063447,0.064599,0.138518
"2018-06-07 00:19:30.896 +0000",1528330770.896015,0.032436,-0.925951,0.012568,0.019493,0.799192,-0.600754,0.000000,0.000000,0.000000,-1,2.404614,-1.025979,0.114243,-0.080162,0.070467,0.160416
"2018-06-07 00:19:30.906 +0000",1528330770.906088,0.021576,-0.902058,0.012727,0.013376,0.784604,-0.619848,0.000000,0.000000,0.000000,-1,2.354711,-1.103820,0.057121,-0.074396,0.056124,0.161077
"2018-06-07 00:19:30.916 +0000",1528330770.916162,0.009583,-0.879431,0.012910,0.006110,0.770376,-0.637556,0.000000,0.000000,0.000000,-1,2.200514,-1.255709,0.049503,-0.039512,0.031122,0.201857
"2018-06-07 00:19:30.926 +0000",1528330770.926235,-0.002684,-0.858560,0.013458,-0.001754,0.756902,-0.653522,0.000000,0.000000,0.000000,-1,2.032564,-1.238546,0.033803,-0.009080,-0.033575,0.304859
"2018-06-07 00:19:30.936 +0000",1528330770.936309,-0.014951,-0.839683,0.013688,-0.009982,0.744431,-0.667621,0.000000,0.000000,0.000000,-1,1.889935,-1.225644,0.004049,-0.013013,-0.069810,0.341068
"2018-06-07 00:19:30.946 +0000",1528330770.946382,-0.027431,-0.821669,0.014176,-0.018678,0.732283,-0.680741,0.000000,0.000000,0.000000,-1,1.756685,-1.298428,-0.005538,0.003862,-0.102996,0.377991
"2018-06-07 00:19:30.956 +0000",1528330770.956455,-0.041109,-0.804786,0.014601,-0.028491,0.720682,-0.692677,0.000000,0.000000,0.000000,-1,1.653060,-1.422633,-0.036856,0.024951,-0.120386,0.373005
"2018-06-07 00:19:30.967 +0000",1528330770.966529,-0.054769,-0.788683,0.015140,-0.038581,0.709426,-0.703720,0.000000,0.000000,0.000000,-1,1.575218,-1.353718,-0.030024,0.038993,-0.095763,0.314881
"2018-06-07 00:19:30.977 +0000",1528330770.976602,-0.067394,-0.773722,0.015653,-0.048171,0.698803,-0.713688,0.000000,0.000000,0.000000,-1,1.539682,-1.254870,-0.065151,0.071807,-0.039181,0.262485
"2018-06-07 00:19:30.987 +0000",1528330770.986676,-0.079085,-0.758320,0.015995,-0.057355,0.687702,-0.723721,0.000000,0.000000,0.000000,-1,1.521975,-1.177955,-0.093929,0.047498,-0.027684,0.211285
"2018-06-07 00:19:30.997 +0000",1528330770.996748,-0.091329,-0.743501,0.016194,-0.067134,0.676869,-0.733033,0.000000,0.000000,0.000000,-1,1.443455,-1.254918,-0.117637,-0.010213,-0.055715,0.225571
"2018-06-07 00:19:31.007 +0000",1528330771.006823,-0.104950,-0.729785,0.015915,-0.078077,0.666709,-0.741214,0.000000,0.000000,0.000000,-1,1.322103,-1.350545,-0.169268,-0.052309,-0.082588,0.288440
"2018-06-07 00:19:31.017 +0000",1528330771.016896,-0.119762,-0.717936,0.014917,-0.089985,0.657832,-0.747768,0.000000,0.000000,0.000000,-1,1.182722,-1.403482,-0.203524,-0.075588,-0.121760,0.318080
"2018-06-07 00:19:31.027 +0000",1528330771.026968,-0.134256,-0.706874,0.014063,-0.101781,0.649460,-0.753551,0.000000,0.000000,0.000000,-1,1.047145,-1.370955,-0.196665,-0.060908,-0.170410,0.309139
"2018-06-07 00:19:31.037 +0000",1528330771.037043,-0.147755,-0.697075,0.013413,-0.112875,0.641977,-0.758367,0.000000,0.000000,0.000000,-1,0.932439,-1.274739,-0.179988,-0.057871,-0.214915,0.294683
"2018-06-07 00:19:31.047 +0000",1528330771.047116,-0.159900,-0.688375,0.012966,-0.122961,0.635283,-0.762425,0.000000,0.000000,0.000000,-1,0.816648,-1.142301,-0.163203,-0.066995,-0.238326,0.289769
"2018-06-07 00:19:31.057 +0000",1528330771.057189,-0.170800,-0.681604,0.012219,-0.131993,0.630039,-0.765262,0.000000,0.000000,0.000000,-1,0.675742,-0.970342,-0.163455,-0.084010,-0.229664,0.305758
"2018-06-07 00:19:31.067 +0000",1528330771.067263,-0.180228,-0.675723,0.011367,-0.139863,0.625462,-0.767615,0.000000,0.000000,0.000000,-1,0.523357,-0.858782,-0.166009,-0.104583,-0.224812,0.320776
"2018-06-07 00:19:31.077 +0000",1528330771.077337,-0.188979,-0.671641,0.010221,-0.147053,0.622272,-0.768863,0.000000,0.000000,0.000000,-1,0.342538,-0.755031,-0.157763,-0.077129,-0.230853,0.332110
"2018-06-07 00:19:31.087 +0000",1528330771.087409,-0.195564,-0.669028,0.009011,-0.152429,0.620224,-0.769470,0.000000,0.000000,0.000000,-1,0.201411,-0.517292,-0.137387,-0.041861,-0.227661,0.306610
"2018-06-07 00:19:31.097 +0000",1528330771.097483,-0.199586,-0.668748,0.007750,-0.155557,0.620004,-0.769022,0.000000,0.000000,0.000000,-1,0.013724,-0.222757,-0.079091,-0.010962,-0.259103,0.314523
"2018-06-07 00:19:31.108 +0000",1528330771.107557,-0.200420,-0.670097,0.006940,-0.156032,0.621062,-0.768071,0.000000,0.000000,0.000000,-1,-0.195951,0.017935,-0.023053,-0.044667,-0.311919,0.312077
"2018-06-07 00:19:31.118 +0000",1528330771.117630,-0.199873,-0.673540,0.006000,-0.155186,0.623757,-0.766056,0.000000,0.000000,0.000000,-1,-0.397897,0.134742,-0.000738,-0.118740,-0.327065,0.218082
"2018-06-07 00:19:31.128 +0000",1528330771.127704,-0.198801,-0.678845,0.004863,-0.153709,0.627895,-0.762967,0.000000,0.000000,0.000000,-1,-0.574600,0.190131,0.024568,-0.147408,-0.299953,0.124372
"2018-06-07 00:19:31.138 +0000",1528330771.137777,-0.197544,-0.686314,0.003450,-0.151825,0.633690,-0.758540,0.000000,0.000000,0.000000,-1,-0.730341,0.248850,0.055213,-0.128509,-0.248467,0.067500
"2018-06-07 00:19:31.148 +0000",1528330771.147851,-0.194901,-0.694871,0.002466,-0.148764,0.640286,-0.753591,0.000000,0.000000,0.000000,-1,-0.887332,0.352487,0.106430,-0.097620,-0.226438,0.051092
"2018-06-07 00:19:31.158 +0000",1528330771.157924,-0.190903,-0.705133,0.002045,-0.144495,0.648135,-0.747689,0.000000,0.000000,0.000000,-1,-1.046612,0.445032,0.183434,-0.046209,-0.225863,0.030877
"2018-06-07 00:19:31.168 +0000",1528330771.167997,-0.185941,-0.717132,0.002320,-0.139336,0.657226,-0.740700,0.000000,0.000000,0.000000,-1,-1.205845,0.480490,0.261349,-0.001518,-0.211258,0.016197
"2018-06-07 00:19:31.178 +0000",1528330771.178071,-0.180628,-0.731348,0.003076,-0.133707,0.667874,-0.732163,0.000000,0.000000,0.000000,-1,-1.359781,0.503905,0.334913,0.015787,-0.206936,0.005769
"2018-06-07 00:19:31.188 +0000",1528330771.188144,-0.174162,-0.746551,0.004730,-0.127195,0.679111,-0.722929,0.000000,0.000000,0.000000,-1,-1.496876,0.542763,0.402030,0.014112,-0.208530,-0.034197
"2018-06-07 00:19:31.198 +0000",1528330771.198218,-0.166691,-0.762970,0.007191,-0.119924,0.691071,-0.712766,0.000000,0.000000,0.000000,-1,-1.597230,0.585007,0.471224,0.005316,-0.198990,-0.107882
"2018-06-07 00:19:31.208 +0000",1528330771.208291,-0.158091,-0.780232,0.010800,-0.111895,0.703444,-0.701884,0.000000,0.000000,0.000000,-1,-1.670330,0.608625,0.549982,0.016314,-0.176558,-0.195836
"2018-06-07 00:19:31.218 +0000",1528330771.218365,-0.148270,-0.799038,0.015166,-0.103024,0.716685,-0.689742,0.000000,0.000000,0.000000,-1,-1.766417,0.720112,0.602158,0.004101,-0.179637,-0.152070
"2018-06-07 00:19:31.228 +0000",1528330771.228438,-0.136313,-0.817858,0.020233,-0.092920,0.729683,-0.677440,0.000000,0.000000,0.000000,-1,-1.805455,0.849512,0.609077,-0.063223,-0.194038,-0.024449
"2018-06-07 00:19:31.239 +0000",1528330771.238511,-0.124197,-0.835004,0.024286,-0.083143,0.741300,-0.666001,0.000000,0.000000,0.000000,-1,-1.551021,0.906946,0.432256,-0.243487,-0.163861,0.045197
"2018-06-07 00:19:31.249 +0000",1528330771.248585,-0.117106,-0.846296,0.025104,-0.077435,0.748831,-0.658218,0.000000,0.000000,0.000000,-1,-0.977839,0.491627,0.112420,-0.544925,0.074381,-0.329254
"2018-06-07 00:19:31.259 +0000",1528330771.258657,-0.120203,-0.855975,0.023982,-0.078601,0.755210,-0.650749,0.000000,0.000000,0.000000,-1,-0.951410,-0.417058,0.065615,-0.456494,0.454568,-0.604668
"2018-06-07 00:19:31.269 +0000",1528330771.268732,-0.124611,-0.867921,0.024056,-0.080342,0.762986,-0.641398,0.000000,0.000000,0.000000,-1,-1.254923,-0.345966,0.189140,-0.125911,0.740706,-0.338170
"2018-06-07 00:19:31.279 +0000",1528330771.278805,-0.118935,-0.883208,0.026569,-0.075307,0.772779,-0.630188,0.000000,0.000000,0.000000,-1,-1.556810,0.650198,0.397102,0.085026,0.882251,-0.079300
"2018-06-07 00:19:31.289 +0000",1528330771.288879,-0.101031,-0.899902,0.031929,-0.062702,0.783266,-0.618512,0.000000,0.000000,0.000000,-1,-1.596609,1.548543,0.545018,0.199757,0.899397,-0.163669
"2018-06-07 00:19:31.299 +0000",1528330771.298952,-0.076735,-0.915575,0.038448,-0.046711,0.792913,-0.607537,0.000000,0.000000,0.000000,-1,-1.417412,2.016710,0.540591,0.223530,0.872416,-0.246559
"2018-06-07 00:19:31.309 +0000",1528330771.309025,-0.051153,-0.930200,0.044747,-0.030559,0.801740,-0.596887,0.000000,0.000000,0.000000,-1,-1.447078,1.998389,0.439496,0.142742,0.671847,0.191827
"2018-06-07 00:19:31.319 +0000",1528330771.319098,-0.031984,-0.945332,0.049222,-0.018723,0.810691,-0.585169,0.000000,0.000000,0.000000,-1,-1.485163,1.349063,0.281725,-0.125626,0.300835,0.393961
"2018-06-07 00:19:31.329 +0000",1528330771.329172,-0.023680,-0.959129,0.050149,-0.013596,0.818692,-0.574067,0.000000,0.000000,0.000000,-1,-1.314380,0.573403,0.021999,-0.359618,-0.077115,0.101640
"2018-06-07 00:19:31.339 +0000",1528330771.339246,-0.023680,-0.971095,0.046547,-0.013364,0.825504,-0.564233,0.000000,0.000000,0.000000,-1,-1.077041,0.264359,-0.208556,-0.281345,-0.339603,-0.049781
"2018-06-07 00:19:31.349 +0000",1528330771.349319,-0.024844,-0.981613,0.040782,-0.013804,0.831395,-0.555505,0.000000,0.000000,0.000000,-1,-1.070113,0.427275,-0.310284,-0.022695,-0.462743,0.131631
"2018-06-07 00:19:31.359 +0000",1528330771.359393,-0.022542,-0.994317,0.034840,-0.012286,0.838387,-0.544931,0.000000,0.000000,0.000000,-1,-1.347963,0.822697,-0.285908,0.180956,-0.510521,0.451746
"2018-06-07 00:19:31.369 +0000",1528330771.369466,-0.016551,-1.010072,0.029453,-0.008801,0.846870,-0.531721,0.000000,0.000000,0.000000,-1,-1.627901,1.094007,-0.247906,0.221829,-0.443229,0.574552
"2018-06-07 00:19:31.380 +0000",1528330771.379539,-0.010355,-1.027569,0.025134,-0.005352,0.856045,-0.516867,0.000000,0.000000,0.000000,-1,-1.662990,0.904762,-0.168778,0.156750,-0.292050,0.415442
"2018-06-07 00:19:31.390 +0000",1528330771.389613,-0.007120,-1.043935,0.022273,-0.003580,0.864389,-0.502804,0.000000,0.000000,0.000000,-1,-1.622952,0.443640,-0.128261,0.044840,-0.025202,0.190258
"2018-06-07 00:19:31.400 +0000",1528330771.399686,-0.007663,-1.060818,0.019221,-0.003741,0.872755,-0.488137,0.000000,0.000000,0.000000,-1,-1.703508,0.155825,-0.134292,-0.037076,0.276140,0.119347
"2018-06-07 00:19:31.410 +0000",1528330771.409759,-0.006597,-1.078628,0.019062,-0.003117,0.881310,-0.472520,0.000000,0.000000,0.000000,-1,-1.779641,0.126206,0.072320,0.046376,0.530738,0.098985
"2018-06-07 00:19:31.420 +0000",1528330771.419832,0.002583,-1.097040,0.026481,0.001178,0.889861,-0.456223,0.000000,0.000000,0.000000,-1,-1.734420,0.328934,0.450358,0.159878,0.697297,0.044434
"2018-06-07 00:19:31.430 +0000",1528330771.429905,0.022174,-1.113860,0.041756,0.009782,0.897408,-0.441084,0.000000,0.000000,0.000000,-1,-1.657977,0.690326,0.709389,0.186614,0.664420,-0.007753
"2018-06-07 00:19:31.440 +0000",1528330771.439979,0.049621,-1.129729,0.060826,0.021174,0.904296,-0.426371,0.000000,0.000000,0.000000,-1,-1.587443,1.122783,0.771797,0.150517,0.423172,-0.024084
"2018-06-07 00:19:31.450 +0000",1528330771.450052,0.082263,-1.144603,0.081223,0.033969,0.910546,-0.412001,0.000000,0.000000,0.000000,-1,-1.509846,1.485381,0.743632,0.102032,0.133064,-0.020998
"2018-06-07 00:19:31.460 +0000",1528330771.460126,0.118484,-1.159378,0.102978,0.047271,0.916555,-0.397096,0.000000,0.000000,0.000000,-1,-1.456312,1.648066,0.727848,0.069322,-0.095128,0.002504
"2018-06-07 00:19:31.470 +0000",1528330771.470199,0.156038,-1.172987,0.125999,0.060202,0.921912,-0.382683,0.000000,0.000000,0.000000,-1,-1.462299,1.613074,0.691188,0.048425,-0.233572,0.046089
"2018-06-07 00:19:31.480 +0000",1528330771.480273,0.192756,-1.186233,0.148842,0.071864,0.926962,-0.368196,0.000000,0.000000,0.000000,-1,-1.438394,1.514726,0.599417,-0.003612,-0.277319,0.044084
"2018-06-07 00:19:31.490 +0000",1528330771.490346,0.227640,-1.198780,0.170832,0.082031,0.931596,-0.354106,0.000000,0.000000,0.000000,-1,-1.361945,1.415439,0.504296,-0.022796,-0.274629,-0.005208
"2018-06-07 00:19:31.500 +0000",1528330771.500419,0.262083,-1.211194,0.192416,0.091172,0.936037,-0.339873,0.000000,0.000000,0.000000,-1,-1.281533,1.417081,0.427746,-0.037553,-0.225954,-0.044404
"2018-06-07 00:19:31.510 +0000",1528330771.510493,0.297574,-1.222323,0.214543,0.100114,0.939895,-0.326444,0.000000,0.000000,0.000000,-1,-1.271139,1.478557,0.434355,-0.017289,-0.180542,-0.033572
"2018-06-07 00:19:31.521 +0000",1528330771.520566,0.336416,-1.232691,0.239447,0.109492,0.943385,-0.313094,0.000000,0.000000,0.000000,-1,-1.224294,1.537769,0.481748,0.025121,-0.104777,-0.061860
"2018-06-07 00:19:31.531 +0000",1528330771.530640,0.377646,-1.242186,0.266877,0.118995,0.946492,-0.299974,0.000000,0.000000,0.000000,-1,-1.186660,1.500433,0.509520,0.052513,-0.012486,-0.050673
"2018-06-07 00:19:31.541 +0000",1528330771.540713,0.420541,-1.251775,0.297701,0.128038,0.949543,-0.286296,0.000000,0.000000,0.000000,-1,-1.174006,1.287418,0.529309,0.115462,0.025967,-0.008977
"2018-06-07 00:19:31.551 +0000",1528330771.550787,0.462185,-1.260490,0.329181,0.136151,0.952240,-0.273300,0.000000,0.000000,0.000000,-1,-1.202980,1.136004,0.491287,0.156070,0.027511,0.050674
"2018-06-07 00:19:31.561 +0000",1528330771.560860,0.504325,-1.269340,0.361499,0.143465,0.954905,-0.259932,0.000000,0.000000,0.000000,-1,-1.232997,1.130670,0.434331,0.143370,-0.009028,0.116988
"2018-06-07 00:19:31.571 +0000",1528330771.570933,0.548938,-1.277944,0.395573,0.150622,0.957424,-0.246257,0.000000,0.000000,0.000000,-1,-1.234089,1.216315,0.429205,0.125944,-0.060665,0.128230
"2018-06-07 00:19:31.581 +0000",1528330771.581007,0.598941,-1.286477,0.434002,0.158130,0.959853,-0.231664,0.000000,0.000000,0.000000,-1,-1.213338,1.318378,0.449891,0.092191,-0.115996,0.106771
"2018-06-07 00:19:31.591 +0000",1528330771.591080,0.650296,-1.293934,0.472613,0.165474,0.961918,-0.217537,0.000000,0.000000,0.000000,-1,-1.227895,1.446924,0.414802,-0.000527,-0.138309,0.098427
"2018-06-07 00:19:31.601 +0000",1528330771.601154,0.703253,-1.301656,0.512112,0.171948,0.964000,-0.202801,0.000000,0.000000,0.000000,-1,-1.270229,1.476860,0.316027,-0.115063,-0.131007,0.063916
"2018-06-07 00:19:31.611 +0000",1528330771.611227,0.755792,-1.309815,0.552373,0.176959,0.966137,-0.187760,0.000000,0.000000,0.000000,-1,-1.312364,1.310302,0.215604,-0.179355,-0.124493,-0.036178
"2018-06-07 00:19:31.621 +0000",1528330771.621301,0.810347,-1.318718,0.596631,0.180694,0.968396,-0.171896,0.000000,0.000000,0.000000,-1,-1.335803,1.097551,0.148349,-0.199737,-0.117627,-0.092539
"2018-06-07 00:19:31.631 +0000",1528330771.631374,0.862974,-1.326734,0.640832,0.183581,0.970364,-0.157099,0.000000,0.000000,0.000000,-1,-1.327098,0.930793,0.129558,-0.184237,-0.096387,-0.081930
"2018-06-07 00:19:31.641 +0000",1528330771.641447,0.914260,-1.333989,0.684850,0.185810,0.972092,-0.143180,0.000000,0.000000,0.000000,-1,-1.228914,0.822605,0.077387,-0.153751,-0.040756,-0.083444
"2018-06-07 00:19:31.652 +0000",1528330771.651521,0.959491,-1.340471,0.723421,0.186929,0.973592,-0.131012,0.000000,0.000000,0.000000,-1,-1.049566,0.751045,-0.016813,-0.120462,0.030726,-0.107101
"2018-06-07 00:19:31.662 +0000",1528330771.661594,1.001793,-1.346759,0.758914,0.187141,0.975008,-0.119688,0.000000,0.000000,0.000000,-1,-0.896685,0.758377,-0.093512,-0.059821,0.049390,-0.109605
"2018-06-07 00:19:31.672 +0000",1528330771.671668,1.038685,-1.352122,0.788940,0.186918,0.976186,-0.110049,0.000000,0.000000,0.000000,-1,-0.819841,0.746602,-0.114160,0.020159,0.030269,-0.073941
"2018-06-07 00:19:31.682 +0000",1528330771.681741,1.074542,-1.357036,0.818318,0.186523,0.977240,-0.100993,0.000000,0.000000,0.000000,-1,-0.771454,0.699547,-0.117634,0.076981,0.002512,-0.065389
