timestamp,timeIntervalSince1970,attitude.roll,attitude.pitch,attitude.yaw,gravity.x,gravity.y,gravity.z,magneticField.x,magneticField.y,magneticField.z,magneticField.accuracy,rotationRate.x,rotationRate.y,rotationRate.z,userAcceleration.x,userAcceleration.y,userAcceleration.z
"2018-06-07 01:09:46.138 +0000",1528333786.137679,-0.424866,0.298103,0.132105,-0.394019,-0.293707,-0.870911,0.000000,0.000000,0.000000,-1,-1.115710,-0.788047,-0.057940,-0.036218,0.054205,-0.122238
"2018-06-07 01:09:46.148 +0000",1528333786.147753,-0.430464,0.288671,0.127648,-0.400027,-0.284679,-0.871170,0.000000,0.000000,0.000000,-1,-1.009310,-0.659646,0.021787,-0.074095,0.103404,-0.131119
"2018-06-07 01:09:46.158 +0000",1528333786.157827,-0.434953,0.278968,0.123632,-0.405078,-0.275364,-0.871830,0.000000,0.000000,0.000000,-1,-1.054944,-0.508458,0.064282,-0.067350,0.110081,-0.104413
"2018-06-07 01:09:46.168 +0000",1528333786.167901,-0.437170,0.268044,0.119391,-0.408258,-0.264846,-0.873603,0.000000,0.000000,0.000000,-1,-1.187793,-0.278453,0.101827,-0.048315,0.081970,-0.023751
"2018-06-07 01:09:46.178 +0000",1528333786.177975,-0.438074,0.255594,0.115213,-0.410415,-0.252821,-0.876151,0.000000,0.000000,0.000000,-1,-1.322965,-0.184770,0.185234,-0.012864,0.079267,0.033393
"2018-06-07 01:09:46.188 +0000",1528333786.188049,-0.438832,0.241700,0.111454,-0.412532,-0.239354,-0.878935,0.000000,0.000000,0.000000,-1,-1.425591,-0.161297,0.279118,0.011989,0.064900,0.066725
"2018-06-07 01:09:46.198 +0000",1528333786.198123,-0.440643,0.227169,0.108174,-0.415563,-0.225220,-0.881240,0.000000,0.000000,0.000000,-1,-1.436403,-0.319657,0.338918,-0.000849,0.039185,0.088607
"2018-06-07 01:09:46.208 +0000",1528333786.208197,-0.447435,0.213084,0.105544,-0.422869,-0.211475,-0.881170,0.000000,0.000000,0.000000,-1,-1.342661,-0.928831,0.379957,-0.036100,0.051365,0.035589
"2018-06-07 01:09:46.218 +0000",1528333786.218271,-0.464108,0.200461,0.103923,-0.438662,-0.199121,-0.876314,0.000000,0.000000,0.000000,-1,-1.133049,-1.913133,0.423942,-0.131498,0.073877,-0.064161
"2018-06-07 01:09:46.228 +0000",1528333786.228345,-0.486505,0.189063,0.105319,-0.459208,-0.187939,-0.868221,0.000000,0.000000,0.000000,-1,-0.893686,-2.214621,0.749513,0.018519,-0.000935,-0.128896
"2018-06-07 01:09:46.238 +0000",1528333786.238420,-0.507445,0.176399,0.110766,-0.478405,-0.175486,-0.860426,0.000000,0.000000,0.000000,-1,-0.852006,-1.892396,1.163403,0.081219,-0.069006,0.008543
"2018-06-07 01:09:46.248 +0000",1528333786.248494,-0.524869,0.161585,0.118115,-0.494572,-0.160883,-0.854116,0.000000,0.000000,0.000000,-1,-0.951858,-1.512734,1.399227,-0.100826,0.109720,0.181952
"2018-06-07 01:09:46.259 +0000",1528333786.258568,-0.539358,0.145259,0.125869,-0.508176,-0.144748,-0.849002,0.000000,0.000000,0.000000,-1,-1.020033,-1.279498,1.494718,-0.152621,0.178165,0.200702
"2018-06-07 01:09:46.269 +0000",1528333786.268642,-0.552170,0.128848,0.133601,-0.520188,-0.128492,-0.844331,0.000000,0.000000,0.000000,-1,-0.980212,-1.116883,1.486495,-0.072082,0.148435,0.093797
"2018-06-07 01:09:46.279 +0000",1528333786.278716,-0.561244,0.114054,0.141161,-0.528782,-0.113806,-0.841093,0.000000,0.000000,0.000000,-1,-0.798058,-0.687781,1.375459,-0.034695,0.088874,0.036085
"2018-06-07 01:09:46.289 +0000",1528333786.288790,-0.565629,0.102686,0.148714,-0.533124,-0.102506,-0.839804,0.000000,0.000000,0.000000,-1,-0.462933,-0.267771,1.177994,-0.054156,0.060178,-0.021249
"2018-06-07 01:09:46.299 +0000",1528333786.298864,-0.567649,0.096137,0.156509,-0.535169,-0.095989,-0.839274,0.000000,0.000000,0.000000,-1,-0.022263,-0.075644,0.941978,-0.135181,0.060741,-0.082433
"2018-06-07 01:09:46.309 +0000",1528333786.308938,-0.568185,0.094306,0.165301,-0.535712,-0.094166,-0.839134,0.000000,0.000000,0.000000,-1,0.425060,0.054613,0.804725,-0.184289,0.078739,-0.071862
"2018-06-07 01:09:46.319 +0000",1528333786.319012,-0.568696,0.096243,0.176101,-0.536041,-0.096095,-0.838705,0.000000,0.000000,0.000000,-1,0.833692,0.026123,0.801556,-0.201965,0.103114,-0.050517
"2018-06-07 01:09:46.329 +0000",1528333786.329086,-0.572976,0.100604,0.188918,-0.539394,-0.100434,-0.836042,0.000000,0.000000,0.000000,-1,1.099637,-0.458489,0.833957,-0.274052,0.143861,-0.042238
"2018-06-07 01:09:46.339 +0000",1528333786.339160,-0.585692,0.106138,0.201694,-0.549666,-0.105939,-0.828640,0.000000,0.000000,0.000000,-1,1.150814,-1.370078,0.710716,-0.233949,0.279661,-0.100819
"2018-06-07 01:09:46.349 +0000",1528333786.349234,-0.606154,0.111412,0.213068,-0.566179,-0.111182,-0.816750,0.000000,0.000000,0.000000,-1,1.021637,-2.044237,0.655269,0.076204,0.310386,-0.104195
"2018-06-07 01:09:46.359 +0000",1528333786.359308,-0.629444,0.112708,0.226869,-0.584960,-0.112469,-0.803226,0.000000,0.000000,0.000000,-1,0.859975,-2.142485,1.202856,0.522201,0.056195,0.074390
"2018-06-07 01:09:46.369 +0000",1528333786.369383,-0.649343,0.108399,0.245734,-0.601114,-0.108187,-0.791806,0.000000,0.000000,0.000000,-1,0.736339,-1.606817,1.917850,0.452020,0.049990,0.179731
"2018-06-07 01:09:46.379 +0000",1528333786.379457,-0.664197,0.099291,0.268440,-0.613391,-0.099128,-0.783534,0.000000,0.000000,0.000000,-1,0.636297,-1.157014,2.443227,0.136935,0.212043,0.180385
"2018-06-07 01:09:46.390 +0000",1528333786.389531,-0.679919,0.087612,0.294603,-0.626318,-0.087500,-0.774641,0.000000,0.000000,0.000000,-1,0.755221,-1.504251,2.865749,0.034644,0.243139,-0.046694
"2018-06-07 01:09:46.400 +0000",1528333786.399605,-0.704932,0.075114,0.326841,-0.646155,-0.075043,-0.759508,0.000000,0.000000,0.000000,-1,1.210312,-2.452409,3.354594,0.045066,0.208924,-0.229155
"2018-06-07 01:09:46.410 +0000",1528333786.409679,-0.739426,0.065280,0.364779,-0.672429,-0.065234,-0.737282,0.000000,0.000000,0.000000,-1,1.936121,-3.387259,3.466382,-0.000850,0.155596,-0.339699
"2018-06-07 01:09:46.420 +0000",1528333786.419753,-0.780305,0.060247,0.405847,-0.702220,-0.060210,-0.709409,0.000000,0.000000,0.000000,-1,2.589845,-3.907976,3.203064,0.008143,0.164290,-0.280962
"2018-06-07 01:09:46.430 +0000",1528333786.429827,-0.823536,0.060409,0.446485,-0.732215,-0.060372,-0.678392,0.000000,0.000000,0.000000,-1,2.982982,-4.074663,2.635889,0.053108,0.214867,-0.180815
"2018-06-07 01:09:46.440 +0000",1528333786.439901,-0.867083,0.064041,0.485163,-0.760882,-0.063997,-0.645727,0.000000,0.000000,0.000000,-1,3.135621,-4.077826,2.181608,0.074816,0.268145,-0.107142
"2018-06-07 01:09:46.450 +0000",1528333786.449975,-0.909289,0.067684,0.523826,-0.787260,-0.067632,-0.612901,0.000000,0.000000,0.000000,-1,3.219640,-3.854633,2.155174,0.116880,0.251577,-0.040450
"2018-06-07 01:09:46.460 +0000",1528333786.460049,-0.940175,0.059576,0.563511,-0.806228,-0.059540,-0.588601,0.000000,0.000000,0.000000,-1,2.897752,-2.655977,2.754230,0.076522,0.221284,0.068429
"2018-06-07 01:09:46.470 +0000",1528333786.470123,-0.963503,0.049445,0.606129,-0.820192,-0.049425,-0.569950,0.000000,0.000000,0.000000,-1,2.862338,-1.908088,3.443824,0.023454,0.221773,0.064914
"2018-06-07 01:09:46.480 +0000",1528333786.480197,-0.980572,0.032285,0.652202,-0.830383,-0.032279,-0.556258,0.000000,0.000000,0.000000,-1,2.801941,-1.409468,4.134901,0.061202,0.209891,0.063719
"2018-06-07 01:09:46.490 +0000",1528333786.490271,-0.993767,0.011355,0.699594,-0.838033,-0.011354,-0.545502,0.000000,0.000000,0.000000,-1,2.775930,-1.151344,4.344387,0.020329,0.209459,0.109894
"2018-06-07 01:09:46.500 +0000",1528333786.500346,-1.005525,-0.008693,0.745854,-0.844411,0.008692,-0.535625,0.000000,0.000000,0.000000,-1,2.827967,-1.213445,4.004183,-0.051997,0.267125,0.060268
"2018-06-07 01:09:46.510 +0000",1528333786.510420,-1.020123,-0.022841,0.789490,-0.851950,0.022839,-0.523124,0.000000,0.000000,0.000000,-1,2.969298,-1.642613,3.296988,-0.137887,0.277119,-0.056465
"2018-06-07 01:09:46.520 +0000",1528333786.520494,-1.039998,-0.030407,0.830766,-0.862005,0.030403,-0.505988,0.000000,0.000000,0.000000,-1,3.178074,-2.232926,2.580564,-0.161448,0.193566,-0.121926
"2018-06-07 01:09:46.531 +0000",1528333786.530568,-1.065162,-0.032731,0.870806,-0.874399,0.032725,-0.484103,0.000000,0.000000,0.000000,-1,3.383230,-2.730720,2.050504,-0.152838,0.083806,-0.140394
"2018-06-07 01:09:46.541 +0000",1528333786.540642,-1.092643,-0.032502,0.910307,-0.887377,0.032496,-0.459898,0.000000,0.000000,0.000000,-1,3.492788,-2.877369,1.752949,-0.141477,0.017034,-0.078494
"2018-06-07 01:09:46.551 +0000",1528333786.550716,-1.120179,-0.031322,0.949002,-0.899737,0.031317,-0.435308,0.000000,0.000000,0.000000,-1,3.471049,-2.840438,1.570247,-0.122450,0.017099,-0.001170
"2018-06-07 01:09:46.561 +0000",1528333786.560790,-1.146831,-0.029991,0.985701,-0.911055,0.029986,-0.411193,0.000000,0.000000,0.000000,-1,3.305445,-2.719317,1.373060,-0.132768,0.030408,0.054534
"2018-06-07 01:09:46.571 +0000",1528333786.570864,-1.171196,-0.029050,1.019506,-0.920828,0.029046,-0.388886,0.000000,0.000000,0.000000,-1,3.040588,-2.437302,1.223896,-0.105997,0.023841,0.114930
"2018-06-07 01:09:46.581 +0000",1528333786.580938,-1.191994,-0.029386,1.050468,-0.928707,0.029382,-0.369649,0.000000,0.000000,0.000000,-1,2.770632,-2.054744,1.179374,-0.027760,0.030615,0.135060
"2018-06-07 01:09:46.591 +0000",1528333786.591012,-1.208548,-0.031122,1.079370,-0.934650,0.031117,-0.354206,0.000000,0.000000,0.000000,-1,2.564127,-1.621822,1.209073,0.031955,0.045086,0.118610
"2018-06-07 01:09:46.601 +0000",1528333786.601086,-1.221197,-0.034220,1.106872,-0.938960,0.034213,-0.342321,0.000000,0.000000,0.000000,-1,2.416449,-1.263420,1.247026,0.052302,0.036527,0.089589
"2018-06-07 01:09:46.611 +0000",1528333786.611160,-1.231182,-0.038351,1.133107,-0.942190,0.038342,-0.332879,0.000000,0.000000,0.000000,-1,2.275335,-1.038855,1.267364,0.066305,-0.012921,0.084008
"2018-06-07 01:09:46.621 +0000",1528333786.621234,-1.239695,-0.043121,1.157875,-0.944806,0.043108,-0.324782,0.000000,0.000000,0.000000,-1,2.138045,-0.920450,1.213165,0.030743,-0.075274,0.102752
"2018-06-07 01:09:46.631 +0000",1528333786.631308,-1.247525,-0.047494,1.181300,-0.947132,0.047476,-0.317312,0.000000,0.000000,0.000000,-1,2.038804,-0.875399,1.137153,-0.009441,-0.096884,0.097204
"2018-06-07 01:09:46.641 +0000",1528333786.641383,-1.255420,-0.051440,1.203883,-0.949422,0.051418,-0.309764,0.000000,0.000000,0.000000,-1,1.994314,-0.907007,1.053262,-0.022776,-0.102580,0.067027
"2018-06-07 01:09:46.651 +0000",1528333786.651457,-1.264541,-0.054749,1.225899,-0.952041,0.054721,-0.301039,0.000000,0.000000,0.000000,-1,1.972140,-1.077900,0.952781,-0.013612,-0.165012,0.070067
"2018-06-07 01:09:46.662 +0000",1528333786.661531,-1.276266,-0.058088,1.247147,-0.955324,0.058056,-0.289801,0.000000,0.000000,0.000000,-1,1.921893,-1.372828,0.830490,0.014208,-0.199215,0.110129
"2018-06-07 01:09:46.672 +0000",1528333786.671605,-1.291630,-0.059890,1.267135,-0.959562,0.059855,-0.275061,0.000000,0.000000,0.000000,-1,1.818200,-1.734837,0.700597,0.039472,-0.197825,0.185507
"2018-06-07 01:09:46.682 +0000",1528333786.681679,-1.310573,-0.061367,1.285005,-0.964514,0.061328,-0.256812,0.000000,0.000000,0.000000,-1,1.608272,-2.062076,0.586108,0.072988,-0.210086,0.273535
"2018-06-07 01:09:46.692 +0000",1528333786.691753,-1.332349,-0.062824,1.299830,-0.969789,0.062782,-0.235729,0.000000,0.000000,0.000000,-1,1.308983,-2.306136,0.472065,0.080842,-0.188606,0.327373
"2018-06-07 01:09:46.702 +0000",1528333786.701826,-1.354576,-0.069545,1.311382,-0.974354,0.069488,-0.214021,0.000000,0.000000,0.000000,-1,1.016031,-2.364540,0.330581,-0.013088,-0.136902,0.319840
"2018-06-07 01:09:46.712 +0000",1528333786.711899,-1.376687,-0.070454,1.320134,-0.978786,0.070395,-0.192414,0.000000,0.000000,0.000000,-1,0.768653,-2.212285,0.246614,-0.037923,-0.164817,0.308152
"2018-06-07 01:09:46.722 +0000",1528333786.721973,-1.397142,-0.071299,1.326200,-0.982458,0.071238,-0.172344,0.000000,0.000000,0.000000,-1,0.509592,-2.030478,0.175668,-0.035945,-0.160853,0.288341
"2018-06-07 01:09:46.732 +0000",1528333786.732048,-1.415994,-0.072243,1.329645,-0.985465,0.072181,-0.153782,0.000000,0.000000,0.000000,-1,0.259684,-1.844417,0.143436,-0.044687,-0.109183,0.261219
"2018-06-07 01:09:46.742 +0000",1528333786.742121,-1.431833,-0.081555,1.330784,-0.987068,0.081465,-0.138056,0.000000,0.000000,0.000000,-1,0.031425,-1.561864,0.152311,-0.013512,-0.087232,0.235331
"2018-06-07 01:09:46.752 +0000",1528333786.752195,-1.445139,-0.083610,1.329664,-0.988650,0.083513,-0.124889,0.000000,0.000000,0.000000,-1,-0.189857,-1.232267,0.204331,0.046038,-0.088381,0.224346
"2018-06-07 01:09:46.762 +0000",1528333786.762269,-1.455536,-0.086573,1.326655,-0.989644,0.086465,-0.114574,0.000000,0.000000,0.000000,-1,-0.377624,-0.939973,0.273377,0.072362,-0.068292,0.215419
"2018-06-07 01:09:46.772 +0000",1528333786.772345,-1.464259,-0.090526,1.321810,-0.990258,0.090402,-0.105901,0.000000,0.000000,0.000000,-1,-0.569624,-0.802574,0.365647,0.083383,-0.052255,0.210774
"2018-06-07 01:09:46.782 +0000",1528333786.782418,-1.472504,-0.095928,1.315240,-0.990597,0.095781,-0.097683,0.000000,0.000000,0.000000,-1,-0.740894,-0.745447,0.503888,0.130643,-0.044984,0.193966
"2018-06-07 01:09:46.792 +0000",1528333786.792492,-1.480945,-0.102829,1.307422,-0.990705,0.102648,-0.089256,0.000000,0.000000,0.000000,-1,-0.860611,-0.777095,0.641752,0.165265,0.001188,0.140556
"2018-06-07 01:09:46.803 +0000",1528333786.802567,-1.490475,-0.110787,1.298868,-0.990665,0.110561,-0.079743,0.000000,0.000000,0.000000,-1,-0.917946,-0.883031,0.735157,0.160785,-0.004207,0.083420
"2018-06-07 01:09:46.813 +0000",1528333786.812640,-1.501095,-0.119283,1.289981,-0.990483,0.119001,-0.069150,0.000000,0.000000,0.000000,-1,-0.946591,-0.971135,0.783370,0.126454,0.003604,0.032147
"2018-06-07 01:09:46.823 +0000",1528333786.822714,-1.511987,-0.128313,1.280665,-0.990064,0.127961,-0.058292,0.000000,0.000000,0.000000,-1,-0.978730,-0.953993,0.863091,0.104993,0.028991,0.008625
"2018-06-07 01:09:46.833 +0000",1528333786.832788,-1.520459,-0.136865,1.272865,-0.989393,0.136438,-0.049846,0.000000,0.000000,0.000000,-1,-0.719901,-0.652085,0.767644,0.003828,0.208456,-0.120717
"2018-06-07 01:09:46.843 +0000",1528333786.842863,-1.527134,-0.145050,1.270203,-0.988555,0.144542,-0.043190,0.000000,0.000000,0.000000,-1,-0.152204,-0.661781,0.838384,-0.123979,0.354619,-0.561409
"2018-06-07 01:09:46.853 +0000",1528333786.852937,-1.532954,-0.154670,1.270406,-0.987354,0.154054,-0.037382,0.000000,0.000000,0.000000,-1,-0.072201,-0.450056,0.925944,-0.000454,0.019317,-0.551196
"2018-06-07 01:09:46.863 +0000",1528333786.863010,-1.531576,-0.159769,1.266933,-0.986504,0.159090,-0.038711,0.000000,0.000000,0.000000,-1,-0.440648,0.409661,0.380710,-0.334800,0.367735,0.244445
"2018-06-07 01:09:46.873 +0000",1528333786.873085,-1.523857,-0.164570,1.261472,-0.985401,0.163829,-0.046288,0.000000,0.000000,0.000000,-1,-0.579886,0.953152,0.527822,-0.101147,0.293645,0.218544
"2018-06-07 01:09:46.883 +0000",1528333786.883158,-1.516067,-0.172060,1.255107,-0.983758,0.171212,-0.053894,0.000000,0.000000,0.000000,-1,-0.689447,0.802723,0.725554,0.095758,0.002540,0.065171
"2018-06-07 01:09:46.893 +0000",1528333786.893232,-1.511539,-0.179413,1.248813,-0.982221,0.178452,-0.058272,0.000000,0.000000,0.000000,-1,-0.626804,0.468271,0.679260,-0.072467,0.175613,0.092177
"2018-06-07 01:09:46.903 +0000",1528333786.903307,-1.509962,-0.186980,1.244421,-0.980752,0.185892,-0.059737,0.000000,0.000000,0.000000,-1,-0.423293,0.171048,0.748922,0.103234,0.217047,0.065398
"2018-06-07 01:09:46.913 +0000",1528333786.913382,-1.510460,-0.195452,1.241292,-0.979174,0.194210,-0.059152,0.000000,0.000000,0.000000,-1,-0.347168,-0.044314,0.847081,0.065768,0.154530,0.116860
"2018-06-07 01:09:46.923 +0000",1528333786.923455,-1.512644,-0.204700,1.238264,-0.977466,0.203273,-0.056906,0.000000,0.000000,0.000000,-1,-0.347573,-0.179632,0.916605,-0.037442,0.186162,0.113241
"2018-06-07 01:09:46.934 +0000",1528333786.933529,-1.515500,-0.214993,1.235459,-0.975484,0.213340,-0.053996,0.000000,0.000000,0.000000,-1,-0.320074,-0.238237,1.035768,0.023320,0.230187,0.037333
"2018-06-07 01:09:46.944 +0000",1528333786.943604,-1.518394,-0.226680,1.233264,-0.973079,0.224743,-0.051038,0.000000,0.000000,0.000000,-1,-0.260327,-0.237612,1.188375,-0.010838,0.166324,0.002393
"2018-06-07 01:09:46.954 +0000",1528333786.953677,-1.521052,-0.239914,1.231327,-0.970156,0.237619,-0.048299,0.000000,0.000000,0.000000,-1,-0.256244,-0.216272,1.337942,-0.003157,0.126288,0.010290
"2018-06-07 01:09:46.964 +0000",1528333786.963751,-1.523421,-0.255133,1.229180,-0.966543,0.252374,-0.045824,0.000000,0.000000,0.000000,-1,-0.288521,-0.165731,1.568351,0.063833,0.088981,0.001024
"2018-06-07 01:09:46.974 +0000",1528333786.973825,-1.524693,-0.274446,1.226764,-0.961552,0.271014,-0.044362,0.000000,0.000000,0.000000,-1,-0.335432,-0.024078,2.051835,0.218845,0.020414,0.015538
"2018-06-07 01:09:46.984 +0000",1528333786.983900,-1.523862,-0.302229,1.223383,-0.953623,0.297649,-0.044790,0.000000,0.000000,0.000000,-1,-0.508995,0.273331,3.006119,0.574946,-0.085247,0.120505
"2018-06-07 01:09:46.994 +0000",1528333786.993973,-1.519530,-0.339158,1.216100,-0.941795,0.332693,-0.048325,0.000000,0.000000,0.000000,-1,-1.005727,0.772690,3.755207,0.849342,-0.042898,0.367951
"2018-06-07 01:09:47.004 +0000",1528333787.004047,-1.517161,-0.377578,1.202691,-0.928222,0.368670,-0.049834,0.000000,0.000000,0.000000,-1,-1.577504,0.597920,3.691469,0.256866,0.208753,0.357375
"2018-06-07 01:09:47.014 +0000",1528333787.014122,-1.523789,-0.413579,1.185491,-0.914676,0.401889,-0.043028,0.000000,0.000000,0.000000,-1,-1.773369,-0.176648,3.442230,-0.355984,-0.057941,0.025572
"2018-06-07 01:09:47.024 +0000",1528333787.024195,-1.533240,-0.448457,1.167566,-0.900481,0.433576,-0.033835,0.000000,0.000000,0.000000,-1,-1.764528,-0.117074,3.377844,-0.303468,-0.218641,-0.160562
"2018-06-07 01:09:47.034 +0000",1528333787.034270,-1.539294,-0.482456,1.147519,-0.885418,0.463956,-0.027902,0.000000,0.000000,0.000000,-1,-1.943719,0.412054,3.258246,-0.168766,-0.057691,-0.031211
"2018-06-07 01:09:47.044 +0000",1528333787.044344,-1.544579,-0.512629,1.125799,-0.871157,0.490470,-0.022844,0.000000,0.000000,0.000000,-1,-1.967793,0.500521,2.826149,-0.270978,0.135460,-0.194151
"2018-06-07 01:09:47.054 +0000",1528333787.054419,-1.551992,-0.538697,1.107130,-0.858225,0.513018,-0.016140,0.000000,0.000000,0.000000,-1,-1.513049,0.037781,2.479555,-0.278265,0.150068,-0.545383
"2018-06-07 01:09:47.064 +0000",1528333787.064492,-1.562421,-0.563872,1.095296,-0.845161,0.534463,-0.007078,0.000000,0.000000,0.000000,-1,-0.895214,-0.544688,2.520547,0.004844,-0.015725,-0.738024
"2018-06-07 01:09:47.075 +0000",1528333787.074566,-1.573850,-0.589959,1.087775,-0.830958,0.556327,0.002537,0.000000,0.000000,0.000000,-1,-0.564677,-0.772397,2.590121,0.231730,-0.169776,-0.344914
"2018-06-07 01:09:47.085 +0000",1528333787.084641,-1.586147,-0.615007,1.081987,-0.816672,0.576965,0.012538,0.000000,0.000000,0.000000,-1,-0.429018,-0.942697,2.452708,0.140616,-0.050079,-0.076167
"2018-06-07 01:09:47.095 +0000",1528333787.094714,-1.600105,-0.637978,1.076535,-0.802956,0.595572,0.023540,0.000000,0.000000,0.000000,-1,-0.371396,-1.099631,2.217628,0.068352,-0.017050,-0.010890
"2018-06-07 01:09:47.105 +0000",1528333787.104788,-1.614130,-0.657071,1.070988,-0.791040,0.610800,0.034300,0.000000,0.000000,0.000000,-1,-0.378848,-1.017808,1.810214,-0.103018,0.003412,0.047029
"2018-06-07 01:09:47.115 +0000",1528333787.114862,-1.624155,-0.672529,1.064997,-0.781134,0.622966,0.041720,0.000000,0.000000,0.000000,-1,-0.394593,-0.503776,1.471842,-0.221231,-0.091991,0.168805
"2018-06-07 01:09:47.125 +0000",1528333787.124937,-1.630464,-0.683829,1.059807,-0.773778,0.631766,0.046224,0.000000,0.000000,0.000000,-1,-0.303106,-0.259011,1.017346,-0.215434,-0.101431,0.232035
"2018-06-07 01:09:47.135 +0000",1528333787.135010,-1.634887,-0.689787,1.057495,-0.769797,0.636373,0.049405,0.000000,0.000000,0.000000,-1,-0.081326,-0.331800,0.458367,-0.222253,-0.010686,0.300434
"2018-06-07 01:09:47.145 +0000",1528333787.145084,-1.636897,-0.691362,1.058838,-0.768694,0.637587,0.050885,0.000000,0.000000,0.000000,-1,0.178784,-0.209842,0.081650,-0.141309,0.124040,0.218372
"2018-06-07 01:09:47.155 +0000",1528333787.155159,-1.631996,-0.690431,1.064320,-0.769527,0.636870,0.047154,0.000000,0.000000,0.000000,-1,0.508194,0.259897,-0.198481,-0.063679,0.351656,0.034557
"2018-06-07 01:09:47.165 +0000",1528333787.165234,-1.620031,-0.686983,1.075631,-0.772225,0.634208,0.038051,0.000000,0.000000,0.000000,-1,0.958316,0.538819,-0.445023,-0.072822,0.429910,-0.116359
"2018-06-07 01:09:47.175 +0000",1528333787.175308,-1.603930,-0.681654,1.090904,-0.776104,0.630078,0.025724,0.000000,0.000000,0.000000,-1,1.179112,0.657651,-0.625891,-0.025333,0.484683,0.004854
"2018-06-07 01:09:47.185 +0000",1528333787.185381,-1.586531,-0.673619,1.105190,-0.781471,0.623819,0.012297,0.000000,0.000000,0.000000,-1,1.043293,0.954793,-0.893627,-0.122063,0.444403,0.076006
"2018-06-07 01:09:47.195 +0000",1528333787.195456,-1.564621,-0.663176,1.117680,-0.788024,0.615623,-0.004867,0.000000,0.000000,0.000000,-1,0.953848,1.540442,-1.081032,-0.160080,0.301827,0.083816
"2018-06-07 01:09:47.206 +0000",1528333787.205529,-1.541470,-0.651445,1.129252,-0.794865,0.606336,-0.023317,0.000000,0.000000,0.000000,-1,0.909348,1.527500,-1.165944,-0.104076,0.229815,-0.008802
"2018-06-07 01:09:47.216 +0000",1528333787.215603,-1.527194,-0.639984,1.137199,-0.801341,0.597183,-0.034962,0.000000,0.000000,0.000000,-1,0.564758,0.735694,-1.057742,0.020396,0.141343,-0.085216
"2018-06-07 01:09:47.226 +0000",1528333787.225677,-1.524611,-0.632739,1.139480,-0.805549,0.591356,-0.037231,0.000000,0.000000,0.000000,-1,0.102860,-0.071157,-0.580370,0.252296,-0.190920,-0.015564
"2018-06-07 01:09:47.236 +0000",1528333787.235752,-1.529677,-0.631051,1.137828,-0.806724,0.589994,-0.033190,0.000000,0.000000,0.000000,-1,-0.176058,-0.488042,-0.043121,0.379142,-0.276762,-0.038373
"2018-06-07 01:09:47.246 +0000",1528333787.245825,-1.534788,-0.634052,1.136379,-0.805111,0.592414,-0.029003,0.000000,0.000000,0.000000,-1,-0.082790,-0.306195,0.372393,0.329219,-0.229056,-0.037037
"2018-06-07 01:09:47.256 +0000",1528333787.255899,-1.532781,-0.637406,1.138040,-0.803061,0.595112,-0.030543,0.000000,0.000000,0.000000,-1,0.178847,0.153695,0.302139,0.044623,-0.136860,-0.025747
"2018-06-07 01:09:47.266 +0000",1528333787.265974,-1.527648,-0.639748,1.142188,-0.801499,0.596993,-0.034605,0.000000,0.000000,0.000000,-1,0.382903,0.367499,0.237755,-0.043258,-0.040642,0.034467
"2018-06-07 01:09:47.276 +0000",1528333787.276047,-1.517225,-0.641780,1.150411,-0.799881,0.598622,-0.042892,0.000000,0.000000,0.000000,-1,0.705134,0.474813,0.253464,0.007751,0.001384,0.009475
"2018-06-07 01:09:47.286 +0000",1528333787.286121,-1.508842,-0.645453,1.160455,-0.797293,0.601561,-0.049459,0.000000,0.000000,0.000000,-1,0.788826,0.166755,0.471808,0.117728,0.092974,0.079900
"2018-06-07 01:09:47.296 +0000",1528333787.296196,-1.501066,-0.651224,1.171622,-0.793409,0.606160,-0.055414,0.000000,0.000000,0.000000,-1,0.868230,0.102469,0.671509,0.114362,0.156688,0.118021
"2018-06-07 01:09:47.306 +0000",1528333787.306271,-1.491959,-0.657867,1.184124,-0.788839,0.611431,-0.062319,0.000000,0.000000,0.000000,-1,0.948492,0.173749,0.742525,0.013220,0.124135,0.036440
"2018-06-07 01:09:47.316 +0000",1528333787.316344,-1.480857,-0.664751,1.197128,-0.783889,0.616863,-0.070693,0.000000,0.000000,0.000000,-1,0.956481,0.362460,0.773174,-0.034791,0.087590,0.028731
"2018-06-07 01:09:47.326 +0000",1528333787.326418,-1.468091,-0.672073,1.209931,-0.778408,0.622609,-0.080229,0.000000,0.000000,0.000000,-1,0.906486,0.508057,0.837175,-0.060429,0.071894,0.001539
"2018-06-07 01:09:47.336 +0000",1528333787.336493,-1.455568,-0.680553,1.221820,-0.772070,0.629223,-0.089360,0.000000,0.000000,0.000000,-1,0.788866,0.488495,0.973994,-0.025309,0.090427,-0.028697
"2018-06-07 01:09:47.347 +0000",1528333787.346566,-1.445954,-0.690486,1.231624,-0.764936,0.636912,-0.095995,0.000000,0.000000,0.000000,-1,0.567537,0.278781,1.098666,0.029600,0.109762,-0.023939
"2018-06-07 01:09:47.357 +0000",1528333787.356640,-1.441044,-0.701651,1.237938,-0.757356,0.645480,-0.098824,0.000000,0.000000,0.000000,-1,0.251076,0.022917,1.170714,0.060869,0.108305,-0.015266
"2018-06-07 01:09:47.367 +0000",1528333787.366714,-1.441291,-0.712575,1.239578,-0.750344,0.653784,-0.097720,0.000000,0.000000,0.000000,-1,-0.103937,-0.173002,1.058015,0.064324,0.167550,-0.037839
"2018-06-07 01:09:47.377 +0000",1528333787.376789,-1.446119,-0.724427,1.236668,-0.743065,0.662707,-0.093127,0.000000,0.000000,0.000000,-1,-0.452474,-0.331512,1.191732,0.100548,0.174451,-0.047544
"2018-06-07 01:09:47.387 +0000",1528333787.386862,-1.455827,-0.739043,1.229817,-0.734233,0.673581,-0.084788,0.000000,0.000000,0.000000,-1,-0.748286,-0.567218,1.444500,0.086971,0.081210,-0.040196
"2018-06-07 01:09:47.397 +0000",1528333787.396936,-1.469772,-0.755697,1.219813,-0.724082,0.685796,-0.073400,0.000000,0.000000,0.000000,-1,-0.935091,-0.753845,1.584219,0.000602,0.031123,-0.057322
"2018-06-07 01:09:47.407 +0000",1528333787.407011,-1.485744,-0.771686,1.208282,-0.714144,0.697344,-0.060887,0.000000,0.000000,0.000000,-1,-0.979272,-0.788579,1.460520,-0.067228,-0.013354,-0.114544
"2018-06-07 01:09:47.417 +0000",1528333787.417085,-1.501434,-0.785578,1.195548,-0.705279,0.707234,-0.048998,0.000000,0.000000,0.000000,-1,-1.013656,-0.625396,1.267457,-0.022154,-0.075291,-0.060682
"2018-06-07 01:09:47.427 +0000",1528333787.427159,-1.517087,-0.798523,1.181911,-0.696759,0.716326,-0.037459,0.000000,0.000000,0.000000,-1,-1.031121,-0.594477,1.212729,0.090359,-0.085101,-0.011095
"2018-06-07 01:09:47.437 +0000",1528333787.437233,-1.534647,-0.810043,1.167724,-0.689016,0.724317,-0.024918,0.000000,0.000000,0.000000,-1,-1.025419,-0.786951,1.041129,0.084967,-0.027951,0.000855
"2018-06-07 01:09:47.447 +0000",1528333787.447308,-1.554443,-0.817759,1.153141,-0.683766,0.729615,-0.011183,0.000000,0.000000,0.000000,-1,-1.008383,-0.934433,0.619008,0.043354,0.001906,0.028379
"2018-06-07 01:09:47.457 +0000",1528333787.457381,-1.573219,-0.819687,1.138846,-0.682448,0.730932,0.001654,0.000000,0.000000,0.000000,-1,-0.953631,-0.762770,0.033155,0.111159,0.025202,0.057917
"2018-06-07 01:09:47.467 +0000",1528333787.467455,-1.587417,-0.816171,1.126216,-0.684920,0.728529,0.011385,0.000000,0.000000,0.000000,-1,-0.820078,-0.402533,-0.442613,0.218749,0.030337,0.058775
"2018-06-07 01:09:47.478 +0000",1528333787.477530,-1.598531,-0.810947,1.115438,-0.688547,0.724940,0.019102,0.000000,0.000000,0.000000,-1,-0.746334,-0.347291,-0.478118,0.229318,-0.098917,0.002474
"2018-06-07 01:09:47.488 +0000",1528333787.487603,-1.616548,-0.808152,1.101194,-0.690112,0.723012,0.031595,0.000000,0.000000,0.000000,-1,-1.099078,-0.950118,-0.152067,0.162753,-0.326375,-0.098673
"2018-06-07 01:09:47.498 +0000",1528333787.497677,-1.647916,-0.807384,1.079147,-0.689335,0.722481,0.053267,0.000000,0.000000,0.000000,-1,-1.650310,-1.703382,0.052452,0.105244,-0.312706,-0.163527
"2018-06-07 01:09:47.508 +0000",1528333787.507751,-1.687365,-0.806786,1.050868,-0.687127,0.722067,0.080463,0.000000,0.000000,0.000000,-1,-2.013269,-1.906810,0.154878,0.027520,-0.083884,-0.122088
"2018-06-07 01:09:47.518 +0000",1528333787.517826,-1.727484,-0.806575,1.019665,-0.683497,0.721922,0.107981,0.000000,0.000000,0.000000,-1,-2.142908,-1.650976,0.318341,-0.052068,-0.009626,-0.029764
"2018-06-07 01:09:47.528 +0000",1528333787.527900,-1.759436,-0.807540,0.989796,-0.679014,0.722589,0.129630,0.000000,0.000000,0.000000,-1,-1.910781,-0.745345,0.479639,-0.174532,-0.042779,0.148416
"2018-06-07 01:09:47.538 +0000",1528333787.537973,-1.775091,-0.810423,0.966784,-0.674859,0.724579,0.139821,0.000000,0.000000,0.000000,-1,-1.350021,0.301720,0.639521,-0.252311,-0.009644,0.293330
"2018-06-07 01:09:47.548 +0000",1528333787.548048,-1.782587,-0.816713,0.950005,-0.669323,0.728900,0.143914,0.000000,0.000000,0.000000,-1,-0.876520,0.485204,0.916487,-0.167896,-0.095004,0.168601
"2018-06-07 01:09:47.558 +0000",1528333787.558122,-1.786350,-0.825492,0.938643,-0.662500,0.734881,0.145058,0.000000,0.000000,0.000000,-1,-0.470832,0.430984,1.026191,-0.068838,-0.050265,0.047935
"2018-06-07 01:09:47.568 +0000",1528333787.568196,-1.787324,-0.834698,0.931780,-0.655723,0.741094,0.144243,0.000000,0.000000,0.000000,-1,-0.186831,0.396850,0.977038,-0.002098,0.017665,-0.017794
"2018-06-07 01:09:47.578 +0000",1528333787.578270,-1.784872,-0.843699,0.929516,-0.649530,0.747107,0.141212,0.000000,0.000000,0.000000,-1,0.130071,0.420108,0.876345,0.109018,0.075083,-0.070717
"2018-06-07 01:09:47.588 +0000",1528333787.588345,-1.779243,-0.852663,0.932447,-0.643736,0.753035,0.136162,0.000000,0.000000,0.000000,-1,0.444644,0.294960,0.823629,0.240019,0.112489,-0.157143
"2018-06-07 01:09:47.598 +0000",1528333787.598418,-1.773605,-0.862016,0.937873,-0.637567,0.759156,0.131106,0.000000,0.000000,0.000000,-1,0.544411,0.099725,0.849724,0.267877,0.168181,-0.130542
"2018-06-07 01:09:47.608 +0000",1528333787.608492,-1.769779,-0.872215,0.943860,-0.630441,0.765755,0.127129,0.000000,0.000000,0.000000,-1,0.597515,-0.120048,0.937166,0.243616,0.148170,-0.075676
"2018-06-07 01:09:47.619 +0000",1528333787.618567,-1.765447,-0.884294,0.952560,-0.621864,0.773468,0.122599,0.000000,0.000000,0.000000,-1,0.862897,-0.287023,1.140445,0.243828,0.015060,-0.141504
"2018-06-07 01:09:47.629 +0000",1528333787.628640,-1.756232,-0.895889,0.964987,-0.614112,0.780765,0.115202,0.000000,0.000000,0.000000,-1,0.884827,0.267677,0.815012,0.195503,-0.004459,-0.149412
"2018-06-07 01:09:47.639 +0000",1528333787.638714,-1.746522,-0.901521,0.969231,-0.610862,0.784271,0.108463,0.000000,0.000000,0.000000,-1,0.210184,0.580368,0.408722,-0.189446,0.116974,0.500851
"2018-06-07 01:09:47.649 +0000",1528333787.648788,-1.745004,-0.902647,0.968669,-0.610156,0.784969,0.107382,0.000000,0.000000,0.000000,-1,-0.062731,0.104743,0.034714,-0.117612,-0.161785,0.008905
"2018-06-07 01:09:47.659 +0000",1528333787.658863,-1.744859,-0.901573,0.967721,-0.611002,0.784303,0.107440,0.000000,0.000000,0.000000,-1,-0.060463,0.092234,-0.122371,0.062723,-0.128511,-0.074115
"2018-06-07 01:09:47.669 +0000",1528333787.668936,-1.743426,-0.900215,0.968642,-0.612204,0.783460,0.106747,0.000000,0.000000,0.000000,-1,0.067810,0.052024,-0.134614,0.156271,-0.063734,-0.053997
"2018-06-07 01:09:47.679 +0000",1528333787.679011,-1.742073,-0.900308,0.970833,-0.612276,0.783518,0.105906,0.000000,0.000000,0.000000,-1,0.147510,-0.062623,0.032670,0.145571,0.021856,-0.049220
"2018-06-07 01:09:47.689 +0000",1528333787.689085,-1.741380,-0.902259,0.973275,-0.610842,0.784729,0.105222,0.000000,0.000000,0.000000,-1,0.195589,-0.140075,0.209816,0.120622,0.047028,-0.046384
"2018-06-07 01:09:47.699 +0000",1528333787.699160,-1.740566,-0.905826,0.976441,-0.608164,0.786935,0.104251,0.000000,0.000000,0.000000,-1,0.273366,-0.174452,0.343994,0.080957,-0.014383,-0.020053
"2018-06-07 01:09:47.709 +0000",1528333787.709234,-1.739382,-0.910368,0.980306,-0.604757,0.789729,0.102931,0.000000,0.000000,0.000000,-1,0.314794,-0.191131,0.422373,0.088094,-0.103649,-0.031687
"2018-06-07 01:09:47.719 +0000",1528333787.719308,-1.740528,-0.916542,0.984615,-0.599821,0.793502,0.102798,0.000000,0.000000,0.000000,-1,0.388120,-0.581518,0.632971,0.179136,-0.182983,-0.167098
"2018-06-07 01:09:47.729 +0000",1528333787.729382,-1.747256,-0.927584,0.991170,-0.590454,0.800174,0.105287,0.000000,0.000000,0.000000,-1,0.653756,-1.406307,1.158105,0.401046,-0.455737,-0.452897
"2018-06-07 01:09:47.739 +0000",1528333787.739456,-1.756492,-0.948724,1.003326,-0.572701,0.812672,0.107587,0.000000,0.000000,0.000000,-1,1.290061,-2.048464,2.357351,0.644021,-0.748463,-0.563612
"2018-06-07 01:09:47.750 +0000",1528333787.749530,-1.759694,-0.990687,1.032073,-0.538364,0.836403,0.102923,0.000000,0.000000,0.000000,-1,2.728390,-2.890243,4.047901,1.677311,-1.395408,-1.086123
"2018-06-07 01:09:47.760 +0000",1528333787.759604,-1.754915,-1.039101,1.065381,-0.498425,0.861949,0.092821,0.000000,0.000000,0.000000,-1,2.405301,-2.124943,4.583311,1.396694,-0.109522,-0.670229
"2018-06-07 01:09:47.770 +0000",1528333787.769678,-1.771966,-1.095941,1.072995,-0.447988,0.889359,0.091357,0.000000,0.000000,0.000000,-1,1.102797,-2.497846,5.735074,0.568334,0.134582,0.682446
"2018-06-07 01:09:47.780 +0000",1528333787.779752,-1.798124,-1.155892,1.063377,-0.392730,0.915155,0.090849,0.000000,0.000000,0.000000,-1,0.952410,-1.145262,5.866279,-0.108094,-0.206506,1.239443
"2018-06-07 01:09:47.790 +0000",1528333787.789826,-1.773325,-1.213831,1.072342,-0.342288,0.936962,0.070287,0.000000,0.000000,0.000000,-1,1.703348,2.471432,5.426536,-0.153286,-0.394161,0.750331
"2018-06-07 01:09:47.800 +0000",1528333787.799901,-1.726985,-1.267206,1.087845,-0.295308,0.954269,0.046502,0.000000,0.000000,0.000000,-1,1.232133,3.041517,5.032361,-0.046260,0.545059,0.256369
"2018-06-07 01:09:47.810 +0000",1528333787.809975,-1.716256,-1.313942,1.082593,-0.251354,0.967194,0.036822,0.000000,0.000000,0.000000,-1,0.423178,1.076571,4.479918,-0.569538,1.059936,0.383741
"2018-06-07 01:09:47.820 +0000",1528333787.820049,-1.743692,-1.345189,1.055368,-0.220362,0.974658,0.038484,0.000000,0.000000,0.000000,-1,-0.429842,-0.544452,2.510877,-1.035498,0.406476,-0.106569
"2018-06-07 01:09:47.830 +0000",1528333787.830123,-1.800430,-1.358524,1.014059,-0.205149,0.977555,0.047955,0.000000,0.000000,0.000000,-1,-0.620561,-1.902049,1.253163,-0.919607,0.048843,-0.463833
"2018-06-07 01:09:47.840 +0000",1528333787.840197,-1.864447,-1.365425,0.973264,-0.195199,0.978985,0.059027,0.000000,0.000000,0.000000,-1,-0.625798,-2.509342,0.779200,-0.313285,0.661472,-0.185934
"2018-06-07 01:09:47.850 +0000",1528333787.850271,-1.921536,-1.368582,0.940064,-0.188610,0.979624,0.069006,0.000000,0.000000,0.000000,-1,-0.492860,-2.408650,0.415620,-0.040684,0.569036,-0.071982
"2018-06-07 01:09:47.860 +0000",1528333787.860345,-1.964010,-1.368534,0.920134,-0.185553,0.979615,0.076970,0.000000,0.000000,0.000000,-1,-0.321427,-2.226775,0.089836,0.074576,0.476409,-0.120122
"2018-06-07 01:09:47.870 +0000",1528333787.870419,-1.993373,-1.367036,0.911784,-0.184551,0.979313,0.082986,0.000000,0.000000,0.000000,-1,-0.186627,-2.057586,-0.114353,0.222484,0.382504,-0.048044
"2018-06-07 01:09:47.880 +0000",1528333787.880493,-2.014136,-1.365385,0.909435,-0.184248,0.978977,0.087493,0.000000,0.000000,0.000000,-1,-0.085128,-1.754372,-0.101871,0.326994,0.322475,0.029511
"2018-06-07 01:09:47.891 +0000",1528333787.890567,-2.032047,-1.366552,0.908204,-0.181628,0.979214,0.090270,0.000000,0.000000,0.000000,-1,0.072114,-1.652005,0.199247,0.378238,0.361118,0.079133
"2018-06-07 01:09:47.901 +0000",1528333787.900641,-2.052717,-1.371588,0.904892,-0.175351,0.980224,0.091718,0.000000,0.000000,0.000000,-1,0.192298,-1.765177,0.565438,0.315594,0.301789,-0.010816
"2018-06-07 01:09:47.911 +0000",1528333787.910715,-2.079878,-1.378920,0.895466,-0.166515,0.981648,0.092941,0.000000,0.000000,0.000000,-1,0.178170,-1.760557,0.763402,0.187541,0.092998,-0.025482
"2018-06-07 01:09:47.921 +0000",1528333787.920789,-2.111844,-1.386651,0.879115,-0.156948,0.983093,0.094303,0.000000,0.000000,0.000000,-1,0.100741,-1.504172,0.829940,0.120404,-0.022171,0.055614
"2018-06-07 01:09:47.931 +0000",1528333787.930864,-2.150323,-1.394552,0.852621,-0.146700,0.984509,0.096014,0.000000,0.000000,0.000000,-1,-0.005606,-1.122962,0.953916,0.096896,-0.022153,0.091593
"2018-06-07 01:09:47.941 +0000",1528333787.940938,-2.190142,-1.403410,0.818949,-0.135655,0.986024,0.096711,0.000000,0.000000,0.000000,-1,0.057020,-0.475556,1.062144,0.060719,-0.032853,0.074279
"2018-06-07 01:09:47.951 +0000",1528333787.951012,-2.215702,-1.412599,0.791989,-0.125893,0.987513,0.094696,0.000000,0.000000,0.000000,-1,0.231436,0.256456,0.963839,0.027154,-0.047343,0.053009
"2018-06-07 01:09:47.961 +0000",1528333787.961086,-2.232193,-1.420948,0.771850,-0.117803,0.988794,0.091691,0.000000,0.000000,0.000000,-1,0.251504,0.302177,0.806882,0.013265,-0.036966,-0.017885
"2018-06-07 01:09:47.971 +0000",1528333787.971160,-2.260157,-1.427577,0.744059,-0.110133,0.989762,0.090778,0.000000,0.000000,0.000000,-1,0.029622,-0.191164,0.765081,0.045817,-0.003296,-0.059406
"2018-06-07 01:09:47.981 +0000",1528333787.981234,-2.313531,-1.432904,0.696180,-0.101248,0.990508,0.092957,0.000000,0.000000,0.000000,-1,-0.201752,-0.720272,0.869485,0.118414,0.000047,-0.001435
"2018-06-07 01:09:47.991 +0000",1528333787.991308,-2.390246,-1.438296,0.628241,-0.090179,0.991235,0.096540,0.000000,0.000000,0.000000,-1,-0.278623,-0.994652,1.065706,0.164383,0.045768,0.012255
"2018-06-07 01:09:48.001 +0000",1528333788.001382,-2.482655,-1.443999,0.546538,-0.077424,0.991972,0.099979,0.000000,0.000000,0.000000,-1,-0.232108,-1.173962,1.185550,0.131410,0.050631,-0.026767
"2018-06-07 01:09:48.011 +0000",1528333788.011456,-2.581544,-1.449411,0.458911,-0.064322,0.992642,0.102584,0.000000,0.000000,0.000000,-1,-0.153317,-1.171537,1.183225,0.036566,0.047428,-0.042845
"2018-06-07 01:09:48.022 +0000",1528333788.021530,-2.678276,-1.454438,0.372889,-0.051883,0.993238,0.103851,0.000000,0.000000,0.000000,-1,-0.029890,-1.119277,1.106725,-0.042081,0.065356,-0.000610
"2018-06-07 01:09:48.032 +0000",1528333788.031604,-2.774058,-1.459230,0.287501,-0.040003,0.993783,0.103895,0.000000,0.000000,0.000000,-1,0.068030,-1.057367,1.067958,-0.080298,0.087546,0.022006
"2018-06-07 01:09:48.042 +0000",1528333788.041678,-2.872325,-1.463464,0.196823,-0.028497,0.994245,0.103260,0.000000,0.000000,0.000000,-1,0.100300,-0.705967,1.062453,-0.062064,0.068148,0.072018
"2018-06-07 01:09:48.052 +0000",1528333788.051752,-2.971381,-1.467648,0.101902,-0.017440,0.994685,0.101470,0.000000,0.000000,0.000000,-1,0.224090,-0.422333,1.046860,-0.030625,0.039861,0.034623
"2018-06-07 01:09:48.062 +0000",1528333788.061827,-3.075611,-1.472079,0.002359,-0.006498,0.995131,0.098335,0.000000,0.000000,0.000000,-1,0.347169,-0.589933,1.042863,0.023786,-0.065185,-0.061272
"2018-06-07 01:09:48.072 +0000",1528333788.071901,3.074080,-1.476504,-0.122414,0.006351,0.995558,0.093930,0.000000,0.000000,0.000000,-1,0.471799,-1.015413,1.279058,0.241101,-0.453382,-0.089826
"2018-06-07 01:09:48.082 +0000",1528333788.081975,2.933844,-1.481455,-0.253225,0.018401,0.996012,0.087296,0.000000,0.000000,0.000000,-1,0.677404,-0.916085,1.027175,0.625169,-0.886850,-0.038972
"2018-06-07 01:09:48.092 +0000",1528333788.092049,2.720762,-1.481884,-0.462418,0.036272,0.996050,0.081042,0.000000,0.000000,0.000000,-1,0.555087,-0.287529,2.106004,0.611677,0.077177,0.190442
"2018-06-07 01:09:48.102 +0000",1528333788.102123,2.436861,-1.469063,-0.751700,0.065790,0.994830,0.077362,0.000000,0.000000,0.000000,-1,0.370415,0.618523,3.200842,0.843741,-0.014956,0.179733
"2018-06-07 01:09:48.112 +0000",1528333788.112197,2.202640,-1.446599,-0.998518,0.099960,0.992297,0.073165,0.000000,0.000000,0.000000,-1,0.566623,1.202653,3.565660,0.656922,-0.027957,-0.050323
"2018-06-07 01:09:48.122 +0000",1528333788.122271,2.043699,-1.419715,-1.170503,0.133987,0.988609,0.068551,0.000000,0.000000,0.000000,-1,0.594116,1.071602,3.421080,0.063950,0.123147,-0.128289
"2018-06-07 01:09:48.132 +0000",1528333788.132345,1.944139,-1.393966,-1.281203,0.163789,0.984406,0.064158,0.000000,0.000000,0.000000,-1,0.592868,0.946376,2.915165,-0.379533,0.420165,-0.039271
"2018-06-07 01:09:48.142 +0000",1528333788.142419,1.881780,-1.373000,-1.355248,0.187082,0.980502,0.060130,0.000000,0.000000,0.000000,-1,0.585258,1.068798,2.249714,-0.708719,0.582029,0.071111
"2018-06-07 01:09:48.152 +0000",1528333788.152493,1.846661,-1.357891,-1.403454,0.203309,0.977421,0.057553,0.000000,0.000000,0.000000,-1,0.466557,1.234979,1.546998,-0.791459,0.527263,0.111636
"2018-06-07 01:09:48.163 +0000",1528333788.162567,1.829122,-1.348149,-1.432624,0.213484,0.975316,0.056409,0.000000,0.000000,0.000000,-1,0.305367,0.988905,0.957197,-0.650740,0.371989,0.076434
"2018-06-07 01:09:48.173 +0000",1528333788.172641,1.817289,-1.342292,-1.450248,0.219673,0.974006,0.055272,0.000000,0.000000,0.000000,-1,0.221610,0.364485,0.588778,-0.373817,0.168496,0.005702
"2018-06-07 01:09:48.183 +0000",1528333788.182716,1.796464,-1.338015,-1.469028,0.224834,0.973028,0.051617,0.000000,0.000000,0.000000,-1,0.372205,-0.494306,0.506337,-0.097393,-0.016867,-0.070553
"2018-06-07 01:09:48.193 +0000",1528333788.192790,1.749601,-1.333623,-1.501159,0.231207,0.972006,0.041787,0.000000,0.000000,0.000000,-1,0.720525,-1.916425,0.596059,0.091181,-0.123297,-0.226907
"2018-06-07 01:09:48.203 +0000",1528333788.202864,1.680196,-1.327840,-1.542107,0.239131,0.970631,0.026266,0.000000,0.000000,0.000000,-1,0.909911,-3.312809,0.726019,0.105366,-0.366551,-0.219457
"2018-06-07 01:09:48.213 +0000",1528333788.212938,1.622373,-1.321759,-1.565430,0.246141,0.969150,0.012706,0.000000,0.000000,0.000000,-1,0.340674,-3.362121,0.589497,0.085235,-0.847797,0.020070
"2018-06-07 01:09:48.223 +0000",1528333788.223012,1.598528,-1.316769,-1.566138,0.251205,0.967908,0.006968,0.000000,0.000000,0.000000,-1,-0.055149,-1.883150,0.523713,0.193436,-0.628064,0.363042
"2018-06-07 01:09:48.233 +0000",1528333788.233086,1.588188,-1.308732,-1.571795,0.259034,0.965857,0.004505,0.000000,0.000000,0.000000,-1,0.212284,-0.045200,0.896318,0.329010,0.534662,0.153713
"2018-06-07 01:09:48.243 +0000",1528333788.243160,1.580951,-1.298339,-1.587758,0.269082,0.963113,0.002732,0.000000,0.000000,0.000000,-1,0.452667,1.013043,1.058041,0.282691,0.774162,-0.024476
"2018-06-07 01:09:48.253 +0000",1528333788.253234,1.573236,-1.288775,-1.608330,0.278294,0.960495,0.000679,0.000000,0.000000,0.000000,-1,0.581869,1.198502,0.896938,0.168636,0.469910,0.004173
"2018-06-07 01:09:48.263 +0000",1528333788.263308,1.563615,-1.282092,-1.627670,0.284700,0.958614,-0.002045,0.000000,0.000000,0.000000,-1,0.509153,0.745174,0.574168,0.060148,0.280751,0.130798
"2018-06-07 01:09:48.273 +0000",1528333788.273382,1.555971,-1.279339,-1.638567,0.287314,0.957826,-0.004260,0.000000,0.000000,0.000000,-1,0.242951,0.135795,0.163184,-0.017356,0.200331,0.189440
"2018-06-07 01:09:48.283 +0000",1528333788.283456,1.551732,-1.280841,-1.642064,0.285855,0.958257,-0.005450,0.000000,0.000000,0.000000,-1,0.069946,-0.122011,-0.254520,-0.058698,0.209880,0.184588
"2018-06-07 01:09:48.294 +0000",1528333788.293530,1.546943,-1.286420,-1.646851,0.280477,0.959837,-0.006691,0.000000,0.000000,0.000000,-1,0.159011,0.044590,-0.657606,-0.062993,0.239443,0.118111
"2018-06-07 01:09:48.304 +0000",1528333788.303604,1.538898,-1.295870,-1.658962,0.271336,0.962445,-0.008658,0.000000,0.000000,0.000000,-1,0.356884,0.474862,-1.037586,-0.030827,0.261493,0.035193
"2018-06-07 01:09:48.314 +0000",1528333788.313679,1.531633,-1.307914,-1.677207,0.259664,0.965645,-0.010175,0.000000,0.000000,0.000000,-1,0.422623,1.294743,-1.219287,0.028391,0.252052,0.009228
"2018-06-07 01:09:48.324 +0000",1528333788.323753,1.544586,-1.315279,-1.687920,0.252658,0.967533,-0.006624,0.000000,0.000000,0.000000,-1,0.212323,2.594321,-0.528763,0.081876,0.077588,0.159501
"2018-06-07 01:09:48.334 +0000",1528333788.333827,1.547596,-1.313482,-1.711743,0.254414,0.967077,-0.005904,0.000000,0.000000,0.000000,-1,0.764772,2.461702,0.311816,0.044827,-0.290060,-0.029115
"2018-06-07 01:09:48.344 +0000",1528333788.343901,1.524488,-1.307907,-1.753471,0.259591,0.965643,-0.012030,0.000000,0.000000,0.000000,-1,1.142987,1.418810,0.564995,-0.005456,-0.327887,-0.233728
"2018-06-07 01:09:48.354 +0000",1528333788.353975,1.488097,-1.301663,-1.794403,0.264985,0.964002,-0.021964,0.000000,0.000000,0.000000,-1,1.068144,-0.069746,0.510281,-0.036103,-0.226377,-0.181344
"2018-06-07 01:09:48.364 +0000",1528333788.364049,1.448671,-1.297766,-1.825426,0.267640,0.962958,-0.032849,0.000000,0.000000,0.000000,-1,0.781482,-1.182497,0.226957,-0.037553,-0.166800,-0.039813
"2018-06-07 01:09:48.374 +0000",1528333788.374123,1.414170,-1.296725,-1.844940,0.267338,0.962677,-0.042218,0.000000,0.000000,0.000000,-1,0.453019,-1.644506,-0.027487,0.015346,-0.134018,0.146222
"2018-06-07 01:09:48.384 +0000",1528333788.384197,1.386695,-1.297023,-1.855992,0.265795,0.962758,-0.049494,0.000000,0.000000,0.000000,-1,0.245422,-1.645980,-0.075420,0.111066,-0.066151,0.170359
"2018-06-07 01:09:48.394 +0000",1528333788.394271,1.366119,-1.297978,-1.861442,0.263821,0.963015,-0.054765,0.000000,0.000000,0.000000,-1,0.085067,-1.478191,-0.141254,0.133640,-0.045886,0.109330
"2018-06-07 01:09:48.404 +0000",1528333788.404345,1.351685,-1.299608,-1.862809,0.261470,0.963453,-0.058226,0.000000,0.000000,0.000000,-1,-0.021067,-1.232486,-0.165036,0.095464,-0.058668,0.051405
"2018-06-07 01:09:48.414 +0000",1528333788.414419,1.344384,-1.300897,-1.860970,0.259828,0.963798,-0.059855,0.000000,0.000000,0.000000,-1,-0.093496,-0.767540,-0.091450,0.116653,-0.045081,0.018412
"2018-06-07 01:09:48.424 +0000",1528333788.424493,1.346498,-1.301358,-1.855660,0.259521,0.963920,-0.059206,0.000000,0.000000,0.000000,-1,-0.166338,-0.131481,0.014905,0.089768,-0.050163,0.031527
"2018-06-07 01:09:48.435 +0000",1528333788.434567,1.359000,-1.301347,-1.845471,0.260251,0.963918,-0.055959,0.000000,0.000000,0.000000,-1,-0.301723,0.359685,0.076880,0.011310,-0.075673,0.061773
"2018-06-07 01:09:48.445 +0000",1528333788.444642,1.376184,-1.301099,-1.830435,0.261409,0.963852,-0.051526,0.000000,0.000000,0.000000,-1,-0.402482,0.180416,0.089497,-0.214259,-0.189529,0.076886
"2018-06-07 01:09:48.455 +0000",1528333788.454716,1.388200,-1.302343,-1.816483,0.260830,0.964182,-0.048163,0.000000,0.000000,0.000000,-1,-0.366949,-0.233609,-0.109708,-0.325832,-0.192347,0.022788
"2018-06-07 01:09:48.465 +0000",1528333788.464790,1.395194,-1.305744,-1.805746,0.257930,0.965079,-0.045764,0.000000,0.000000,0.000000,-1,-0.331467,-0.347815,-0.339234,-0.176692,-0.055258,-0.026257
"2018-06-07 01:09:48.475 +0000",1528333788.474864,1.401253,-1.311262,-1.796039,0.252949,0.966510,-0.043301,0.000000,0.000000,0.000000,-1,-0.348788,-0.312950,-0.549919,-0.100590,-0.090945,-0.021442
"2018-06-07 01:09:48.485 +0000",1528333788.484938,1.409570,-1.318967,-1.784904,0.245943,0.968458,-0.040000,0.000000,0.000000,0.000000,-1,-0.414594,-0.206920,-0.747378,-0.072817,-0.169340,-0.000817
"2018-06-07 01:09:48.495 +0000",1528333788.495012,1.420190,-1.327141,-1.774258,0.238519,0.970463,-0.036196,0.000000,0.000000,0.000000,-1,-0.363423,0.114875,-0.748711,0.032966,-0.121738,-0.019346
"2018-06-07 01:09:48.505 +0000",1528333788.505086,1.431715,-1.334195,-1.766166,0.232134,0.972140,-0.032495,0.000000,0.000000,0.000000,-1,-0.263814,0.441789,-0.629667,0.141936,-0.031436,-0.043707
"2018-06-07 01:09:48.515 +0000",1528333788.515160,1.443127,-1.339537,-1.761240,0.227336,0.973378,-0.029182,0.000000,0.000000,0.000000,-1,-0.153999,0.724636,-0.466673,0.186269,0.031352,-0.061104
"2018-06-07 01:09:48.525 +0000",1528333788.525234,1.452914,-1.342955,-1.760488,0.224305,0.974156,-0.026565,0.000000,0.000000,0.000000,-1,-0.024262,0.950407,-0.292059,0.208007,0.095225,-0.067552
"2018-06-07 01:09:48.535 +0000",1528333788.535308,1.458916,-1.345167,-1.764818,0.222318,0.974654,-0.024977,0.000000,0.000000,0.000000,-1,0.101150,1.021804,-0.218995,0.189746,0.138582,-0.056657
"2018-06-07 01:09:48.545 +0000",1528333788.545382,1.459418,-1.347070,-1.774224,0.220487,0.975078,-0.024659,0.000000,0.000000,0.000000,-1,0.211464,0.925473,-0.210922,0.139315,0.143407,-0.047210
"2018-06-07 01:09:48.555 +0000",1528333788.555456,1.454887,-1.348644,-1.786900,0.218848,0.975426,-0.025481,0.000000,0.000000,0.000000,-1,0.267037,0.726777,-0.173980,0.115792,0.138329,-0.060030
"2018-06-07 01:09:48.566 +0000",1528333788.565531,1.448837,-1.349577,-1.799209,0.217787,0.975631,-0.026694,0.000000,0.000000,0.000000,-1,0.245681,0.549694,-0.106681,0.100649,0.109849,-0.064264
"2018-06-07 01:09:48.576 +0000",1528333788.575605,1.443915,-1.349892,-1.808952,0.217348,0.975700,-0.027726,0.000000,0.000000,0.000000,-1,0.194878,0.428524,-0.041303,0.060774,0.065453,-0.051589
"2018-06-07 01:09:48.586 +0000",1528333788.585679,1.440312,-1.349728,-1.816659,0.217406,0.975664,-0.028530,0.000000,0.000000,0.000000,-1,0.160958,0.379935,0.004887,0.011934,0.028334,-0.032566
"2018-06-07 01:09:48.596 +0000",1528333788.595753,1.437216,-1.349389,-1.823444,0.217645,0.975589,-0.029247,0.000000,0.000000,0.000000,-1,0.148320,0.338144,0.014475,-0.019204,0.005093,-0.016865
"2018-06-07 01:09:48.606 +0000",1528333788.605827,1.434015,-1.349106,-1.829990,0.217822,0.975527,-0.029981,0.000000,0.000000,0.000000,-1,0.144204,0.309622,0.006872,-0.035480,-0.015566,-0.003313
"2018-06-07 01:09:48.616 +0000",1528333788.615901,1.430632,-1.348803,-1.836706,0.218013,0.975461,-0.030759,0.000000,0.000000,0.000000,-1,0.151491,0.318393,0.014410,-0.037043,-0.008404,0.007810
"2018-06-07 01:09:48.626 +0000",1528333788.625975,1.369683,-1.304416,-1.899429,0.257933,0.964730,-0.052585,0.000000,0.000000,0.000000,-1,0.134414,0.333575,0.047838,-0.053252,0.018729,0.021091
"2018-06-07 01:09:48.636 +0000",1528333788.636049,1.351144,-1.293606,-1.920980,0.267077,0.961828,-0.059626,0.000000,0.000000,0.000000,-1,0.137444,0.356582,0.060806,-0.065951,0.031763,0.016978
"2018-06-07 01:09:48.646 +0000",1528333788.646123,1.338735,-1.289225,-1.937227,0.270414,0.960620,-0.063904,0.000000,0.000000,0.000000,-1,0.174355,0.416077,0.034003,-0.084013,0.036038,0.024933
"2018-06-07 01:09:48.656 +0000",1528333788.656197,1.336883,-1.288568,-1.943784,0.270909,0.960437,-0.064551,0.000000,0.000000,0.000000,-1,0.197551,0.444746,0.018975,-0.093099,0.034176,0.024390
"2018-06-07 01:09:48.666 +0000",1528333788.666271,1.334431,-1.287902,-1.950825,0.271372,0.960252,-0.065365,0.000000,0.000000,0.000000,-1,0.207030,0.417328,0.018873,-0.092676,0.039489,0.024044
"2018-06-07 01:09:48.676 +0000",1528333788.676345,1.336457,-1.298831,-1.952905,0.261280,0.963245,-0.062374,0.000000,0.000000,0.000000,-1,0.195541,0.342644,0.019758,-0.090809,0.034848,0.022640
"2018-06-07 01:09:48.686 +0000",1528333788.686419,1.342267,-1.310184,-1.950633,0.250970,0.966232,-0.058374,0.000000,0.000000,0.000000,-1,0.171303,0.288715,0.036867,-0.094629,0.029861,0.020059
"2018-06-07 01:09:48.696 +0000",1528333788.696493,1.354038,-1.321051,-1.942116,0.241371,0.968975,-0.053154,0.000000,0.000000,0.000000,-1,0.118654,0.253349,0.058397,-0.104698,0.030338,0.013893
"2018-06-07 01:09:48.707 +0000",1528333788.706569,1.362358,-1.327200,-1.936602,0.235970,0.970477,-0.049910,0.000000,0.000000,0.000000,-1,0.095653,0.236868,0.046570,-0.129281,0.047574,0.002303
"2018-06-07 01:09:48.717 +0000",1528333788.716643,1.361665,-1.333151,-1.939862,0.230281,0.971895,-0.048873,0.000000,0.000000,0.000000,-1,0.112769,0.240381,0.005667,-0.141765,0.065809,-0.005097
"2018-06-07 01:09:48.727 +0000",1528333788.726717,1.359548,-1.340807,-1.944796,0.222895,0.973669,-0.047799,0.000000,0.000000,0.000000,-1,0.154122,0.264872,-0.048139,-0.141444,0.064036,-0.011252
"2018-06-07 01:09:48.737 +0000",1528333788.736791,1.352934,-1.348076,-1.954451,0.215658,0.975300,-0.047742,0.000000,0.000000,0.000000,-1,0.213222,0.282763,-0.086946,-0.127599,0.057521,-0.012744
"2018-06-07 01:09:48.747 +0000",1528333788.746865,1.342910,-1.353540,-1.967481,0.209974,0.976493,-0.048696,0.000000,0.000000,0.000000,-1,0.278515,0.259973,-0.106523,-0.107175,0.058816,-0.008799
"2018-06-07 01:09:48.757 +0000",1528333788.756939,1.330179,-1.358416,-1.982886,0.204710,0.977532,-0.050230,0.000000,0.000000,0.000000,-1,0.330129,0.219559,-0.120742,-0.081694,0.054740,0.007566
"2018-06-07 01:09:48.767 +0000",1528333788.767013,1.315896,-1.363333,-1.999619,0.199319,0.978557,-0.051936,0.000000,0.000000,0.000000,-1,0.335439,0.202032,-0.126184,-0.058801,0.036275,0.030818
"2018-06-07 01:09:48.777 +0000",1528333788.777087,1.301611,-1.368839,-2.016252,0.193360,0.979676,-0.053344,0.000000,0.000000,0.000000,-1,0.280750,0.206234,-0.117441,-0.037385,0.017196,0.047165
"2018-06-07 01:09:48.787 +0000",1528333788.787161,1.285490,-1.375738,-2.034848,0.185986,0.981036,-0.054551,0.000000,0.000000,0.000000,-1,0.206064,0.244407,-0.107478,-0.016216,-0.001651,0.053270
"2018-06-07 01:09:48.797 +0000",1528333788.797235,1.269427,-1.383310,-2.053764,0.177987,0.982476,-0.055325,0.000000,0.000000,0.000000,-1,0.135557,0.296858,-0.096408,-0.003014,-0.023873,0.043194
"2018-06-07 01:09:48.807 +0000",1528333788.807309,1.253176,-1.390752,-2.073208,0.170113,0.983836,-0.055925,0.000000,0.000000,0.000000,-1,0.095500,0.334011,-0.082224,0.003380,-0.039317,0.027620
"2018-06-07 01:09:48.817 +0000",1528333788.817383,1.237497,-1.396943,-2.092102,0.163455,0.984926,-0.056591,0.000000,0.000000,0.000000,-1,0.103754,0.325167,-0.061832,0.008161,-0.037248,0.002025
"2018-06-07 01:09:48.827 +0000",1528333788.827457,1.223452,-1.401326,-2.109147,0.158583,0.985674,-0.057410,0.000000,0.000000,0.000000,-1,0.149815,0.288965,-0.037303,0.009844,-0.032565,-0.025536
"2018-06-07 01:09:48.838 +0000",1528333788.837532,1.215804,-1.403803,-2.119432,0.155850,0.986089,-0.057773,0.000000,0.000000,0.000000,-1,0.201173,0.230837,-0.016077,0.002384,-0.025838,-0.041180
"2018-06-07 01:09:48.848 +0000",1528333788.847606,1.215419,-1.404925,-2.122044,0.154791,0.986275,-0.057448,0.000000,0.000000,0.000000,-1,0.251516,0.171627,0.000846,-0.004355,-0.022850,-0.036699
"2018-06-07 01:09:48.858 +0000",1528333788.857680,1.219485,-1.404977,-2.119859,0.154975,0.986283,-0.056801,0.000000,0.000000,0.000000,-1,0.281968,0.128872,0.007106,-0.004859,-0.025270,-0.015770
"2018-06-07 01:09:48.868 +0000",1528333788.867754,1.225218,-1.403990,-2.115596,0.156214,0.986120,-0.056241,0.000000,0.000000,0.000000,-1,0.287108,0.082695,0.027397,-0.001307,-0.026037,0.000608
"2018-06-07 01:09:48.878 +0000",1528333788.877828,1.228080,-1.402148,-2.113818,0.158085,0.985813,-0.056404,0.000000,0.000000,0.000000,-1,0.270065,0.062748,0.060723,0.009456,-0.024494,0.006279
"2018-06-07 01:09:48.888 +0000",1528333788.887902,1.225791,-1.399914,-2.117332,0.160027,0.985435,-0.057510,0.000000,0.000000,0.000000,-1,0.276208,0.098924,0.076949,0.012199,-0.004966,0.004761
"2018-06-07 01:09:48.898 +0000",1528333788.897976,1.215676,-1.397282,-2.129209,0.161868,0.984984,-0.060028,0.000000,0.000000,0.000000,-1,0.294913,0.170258,0.094324,0.018964,0.006730,0.009521
"2018-06-07 01:09:48.908 +0000",1528333788.908050,1.199119,-1.394336,-2.147918,0.163557,0.984471,-0.063753,0.000000,0.000000,0.000000,-1,0.300985,0.203100,0.120221,0.016466,-0.002248,0.027026
"2018-06-07 01:09:48.918 +0000",1528333788.918124,1.181229,-1.391457,-2.167701,0.165011,0.983962,-0.067745,0.000000,0.000000,0.000000,-1,0.286041,0.168879,0.155652,0.002271,-0.008971,0.028973
"2018-06-07 01:09:48.928 +0000",1528333788.928198,1.166379,-1.388736,-2.184084,0.166448,0.983473,-0.071241,0.000000,0.000000,0.000000,-1,0.276370,0.137980,0.187854,-0.007726,-0.001570,0.035688
"2018-06-07 01:09:48.938 +0000",1528333788.938272,1.156995,-1.386105,-2.194927,0.168141,0.982993,-0.073840,0.000000,0.000000,0.000000,-1,0.278274,0.127993,0.214711,-0.019276,0.007684,0.042026
"2018-06-07 01:09:48.948 +0000",1528333788.948346,1.151317,-1.383300,-2.201825,0.170237,0.982474,-0.075917,0.000000,0.000000,0.000000,-1,0.293808,0.091670,0.247915,-0.037684,0.011865,0.034276
"2018-06-07 01:09:48.958 +0000",1528333788.958420,1.147388,-1.379924,-2.206368,0.172959,0.981839,-0.077947,0.000000,0.000000,0.000000,-1,0.302042,0.019111,0.278879,-0.063844,0.008151,0.028234
"2018-06-07 01:09:48.968 +0000",1528333788.968494,1.144001,-1.376342,-2.209480,0.175895,0.981153,-0.079988,0.000000,0.000000,0.000000,-1,0.289253,-0.071090,0.314142,-0.096336,0.024065,0.038270
"2018-06-07 01:09:48.979 +0000",1528333788.978569,1.142245,-1.372485,-2.209922,0.179195,0.980401,-0.081869,0.000000,0.000000,0.000000,-1,0.273351,-0.175556,0.346144,-0.138393,0.034766,0.056661
"2018-06-07 01:09:48.989 +0000",1528333788.988643,1.142719,-1.368911,-2.207504,0.182421,0.979690,-0.083238,0.000000,0.000000,0.000000,-1,0.258729,-0.227174,0.341725,-0.184969,0.054459,0.077745
"2018-06-07 01:09:48.999 +0000",1528333788.998717,1.142334,-1.365941,-2.205764,0.185035,0.979091,-0.084517,0.000000,0.000000,0.000000,-1,0.234667,-0.232680,0.329932,-0.212760,0.074773,0.094465
"2018-06-07 01:09:49.009 +0000",1528333789.008791,1.140791,-1.363295,-2.204982,0.187260,0.978549,-0.085882,0.000000,0.000000,0.000000,-1,0.221170,-0.250205,0.311626,-0.236240,0.085767,0.104696
"2018-06-07 01:09:49.019 +0000",1528333789.018865,1.137925,-1.360928,-2.205661,0.189114,0.978058,-0.087390,0.000000,0.000000,0.000000,-1,0.220326,-0.224833,0.281583,-0.246808,0.110839,0.121188
"2018-06-07 01:09:49.029 +0000",1528333789.028939,1.133657,-1.359029,-2.208171,0.190423,0.977661,-0.088983,0.000000,0.000000,0.000000,-1,0.200615,-0.179724,0.244111,-0.237633,0.133133,0.150689
"2018-06-07 01:09:49.039 +0000",1528333789.039013,1.129644,-1.357914,-2.209922,0.191049,0.977426,-0.090211,0.000000,0.000000,0.000000,-1,0.124225,-0.253369,0.216105,-0.224496,0.141821,0.192018
"2018-06-07 01:09:49.049 +0000",1528333789.049087,1.126250,-1.357898,-2.211215,0.190755,0.977423,-0.090865,0.000000,0.000000,0.000000,-1,0.095091,-0.188498,0.172259,-0.207036,0.128962,0.215957
"2018-06-07 01:09:49.059 +0000",1528333789.059161,1.125067,-1.358974,-2.210497,0.189698,0.977650,-0.090638,0.000000,0.000000,0.000000,-1,0.012385,-0.187483,0.136955,-0.204957,0.098355,0.241837
"2018-06-07 01:09:49.069 +0000",1528333789.069235,1.128255,-1.361027,-2.205047,0.188172,0.978079,-0.089172,0.000000,0.000000,0.000000,-1,-0.116683,-0.215233,0.124262,-0.190369,0.091516,0.290360
"2018-06-07 01:09:49.079 +0000",1528333789.079309,1.137674,-1.363664,-2.193143,0.186662,0.978625,-0.086313,0.000000,0.000000,0.000000,-1,-0.262615,-0.215603,0.115990,-0.166306,0.107175,0.326120
"2018-06-07 01:09:49.089 +0000",1528333789.089383,1.154587,-1.364296,-2.173781,0.187530,0.978754,-0.082894,0.000000,0.000000,0.000000,-1,-0.430558,-0.196240,0.099221,-0.155151,0.148657,0.342538
"2018-06-07 01:09:49.099 +0000",1528333789.099457,1.179980,-1.366171,-2.146276,0.187875,0.979137,-0.077406,0.000000,0.000000,0.000000,-1,-0.640111,-0.133937,0.024587,-0.158685,0.231281,0.348982
"2018-06-07 01:09:49.110 +0000",1528333789.109532,1.215403,-1.370079,-2.109038,0.186910,0.979924,-0.069372,0.000000,0.000000,0.000000,-1,-0.900461,-0.098868,-0.133911,-0.174504,0.322246,0.345495
"2018-06-07 01:09:49.120 +0000",1528333789.119606,1.261875,-1.376539,-2.060624,0.183896,0.981191,-0.058688,0.000000,0.000000,0.000000,-1,-1.168648,-0.109643,-0.360289,-0.182859,0.378077,0.327213
"2018-06-07 01:09:49.130 +0000",1528333789.129680,1.323325,-1.385788,-1.996470,0.178345,0.982935,-0.045059,0.000000,0.000000,0.000000,-1,-1.489086,-0.166549,-0.615724,-0.180772,0.372351,0.349701
"2018-06-07 01:09:49.140 +0000",1528333789.139754,1.407558,-1.397106,-1.909555,0.170515,0.984954,-0.028085,0.000000,0.000000,0.000000,-1,-1.818302,-0.099571,-0.837434,-0.125639,0.303620,0.400597
"2018-06-07 01:09:49.150 +0000",1528333789.149828,1.525830,-1.408686,-1.790472,0.161232,0.986889,-0.007255,0.000000,0.000000,0.000000,-1,-2.175767,0.160123,-0.960635,-0.006859,0.157413,0.454536
"2018-06-07 01:09:49.160 +0000",1528333789.159902,1.688457,-1.418073,-1.630212,0.151071,0.988360,0.017858,0.000000,0.000000,0.000000,-1,-2.548411,0.526055,-1.035088,0.127371,0.011380,0.474238
"2018-06-07 01:09:49.170 +0000",1528333789.169976,1.892674,-1.422615,-1.431607,0.140051,0.989041,0.046703,0.000000,0.000000,0.000000,-1,-2.850766,0.851498,-1.093685,0.235239,-0.072186,0.365208
"2018-06-07 01:09:49.180 +0000",1528333789.180050,2.117059,-1.420075,-1.215430,0.128295,0.988663,0.078000,0.000000,0.000000,0.000000,-1,-3.038875,1.120014,-1.113986,0.319367,-0.091080,0.174792
"2018-06-07 01:09:49.190 +0000",1528333789.190124,2.330172,-1.409869,-1.013530,0.116208,0.987079,0.110312,0.000000,0.000000,0.000000,-1,-3.074166,1.445778,-1.072083,0.453189,-0.016895,0.023248
"2018-06-07 01:09:49.200 +0000",1528333789.200198,2.505418,-1.394045,-0.852683,0.104464,0.984420,0.141432,0.000000,0.000000,0.000000,-1,-2.889609,1.701467,-0.927625,0.618177,0.157792,-0.106795
"2018-06-07 01:09:49.210 +0000",1528333789.210272,2.632698,-1.375940,-0.740548,0.094335,0.981075,0.169087,0.000000,0.000000,0.000000,-1,-2.520628,1.669666,-0.690845,0.730616,0.342014,-0.239202
"2018-06-07 01:09:49.220 +0000",1528333789.220346,2.717246,-1.358275,-0.670010,0.086842,0.977502,0.192214,0.000000,0.000000,0.000000,-1,-2.098314,1.478627,-0.404095,0.760525,0.475104,-0.289733
"2018-06-07 01:09:49.230 +0000",1528333789.230420,2.770337,-1.342049,-0.628104,0.082263,0.973951,0.211306,0.000000,0.000000,0.000000,-1,-1.761606,1.106408,-0.162853,0.695157,0.528917,-0.273669
"2018-06-07 01:09:49.240 +0000",1528333789.240494,2.805325,-1.327278,-0.600997,0.079560,0.970496,0.227611,0.000000,0.000000,0.000000,-1,-1.543581,0.793745,-0.066378,0.500137,0.524667,-0.248348
"2018-06-07 01:09:49.251 +0000",1528333789.250568,2.833296,-1.314123,-0.579570,0.077030,0.967240,0.241892,0.000000,0.000000,0.000000,-1,-1.364658,0.692297,-0.101504,0.282467,0.448532,-0.204355
"2018-06-07 01:09:49.261 +0000",1528333789.260643,2.858765,-1.302177,-0.559639,0.074065,0.964138,0.254854,0.000000,0.000000,0.000000,-1,-1.262226,0.596227,-0.161178,0.096772,0.348774,-0.219224
"2018-06-07 01:09:49.271 +0000",1528333789.270717,2.885303,-1.291136,-0.538448,0.069971,0.961149,0.267010,0.000000,0.000000,0.000000,-1,-1.191825,0.617880,-0.304337,-0.073587,0.240419,-0.213208
"2018-06-07 01:09:49.281 +0000",1528333789.280791,2.917268,-1.280875,-0.511531,0.063592,0.958266,0.278712,0.000000,0.000000,0.000000,-1,-1.168865,0.597043,-0.556151,-0.256204,0.154420,-0.248271
"2018-06-07 01:09:49.291 +0000",1528333789.290865,2.956763,-1.270994,-0.475700,0.054275,0.955395,0.290299,0.000000,0.000000,0.000000,-1,-1.152307,0.473463,-0.919041,-0.339599,0.097355,-0.228333
"2018-06-07 01:09:49.301 +0000",1528333789.300939,3.007941,-1.262636,-0.426615,0.040416,0.952893,0.300599,0.000000,0.000000,0.000000,-1,-1.028605,0.443019,-1.431420,-0.437847,0.120685,-0.273789
"2018-06-07 01:09:49.311 +0000",1528333789.311013,3.067880,-1.253821,-0.369278,0.022955,0.950182,0.310845,0.000000,0.000000,0.000000,-1,-1.064522,0.558180,-1.692385,-0.282339,0.077344,-0.123620
"2018-06-07 01:09:49.321 +0000",1528333789.321087,3.125098,-1.243718,-0.314284,0.005299,0.946985,0.321232,0.000000,0.000000,0.000000,-1,-1.076243,0.458108,-1.658228,0.047237,-0.030908,-0.111714
"2018-06-07 01:09:49.331 +0000",1528333789.331161,-3.109978,-1.233316,-0.265582,-0.010466,0.943592,0.330943,0.000000,0.000000,0.000000,-1,-0.992575,0.096791,-1.566965,0.257903,-0.116154,-0.247920
"2018-06-07 01:09:49.341 +0000",1528333789.341235,-3.071074,-1.223022,-0.221849,-0.024013,0.940134,0.339957,0.000000,0.000000,0.000000,-1,-0.939232,-0.326044,-1.485493,0.340084,-0.151941,-0.328024
"2018-06-07 01:09:49.351 +0000",1528333789.351309,-3.039985,-1.212727,-0.181123,-0.035549,0.936575,0.348658,0.000000,0.000000,0.000000,-1,-0.880956,-0.848414,-1.487146,0.361446,-0.169165,-0.346765
"2018-06-07 01:09:49.361 +0000",1528333789.361383,-3.014880,-1.202199,-0.142035,-0.045533,0.932834,0.357417,0.000000,0.000000,0.000000,-1,-0.891144,-1.207427,-1.483864,0.324647,-0.146014,-0.389063
"2018-06-07 01:09:49.371 +0000",1528333789.371457,-2.993869,-1.190918,-0.105774,-0.054578,0.928710,0.366767,0.000000,0.000000,0.000000,-1,-0.940728,-1.264798,-1.448421,0.348493,-0.177749,-0.287207
"2018-06-07 01:09:49.382 +0000",1528333789.381531,-2.975450,-1.179016,-0.072677,-0.063147,0.924231,0.376575,0.000000,0.000000,0.000000,-1,-0.981175,-1.191613,-1.387880,0.344382,-0.198446,-0.247242
"2018-06-07 01:09:49.392 +0000",1528333789.391605,-2.959243,-1.167247,-0.043348,-0.071209,0.919673,0.386173,0.000000,0.000000,0.000000,-1,-0.940096,-1.036045,-1.285335,0.371670,-0.233439,-0.246342
"2018-06-07 01:09:49.402 +0000",1528333789.401680,-2.945227,-1.156405,-0.017791,-0.078556,0.915362,0.394893,0.000000,0.000000,0.000000,-1,-0.838255,-0.905654,-1.159339,0.403080,-0.261446,-0.276347
"2018-06-07 01:09:49.412 +0000",1528333789.411754,-2.933904,-1.146834,0.003857,-0.084825,0.911466,0.402532,0.000000,0.000000,0.000000,-1,-0.729219,-0.824756,-1.006611,0.426377,-0.283750,-0.296453
"2018-06-07 01:09:49.422 +0000",1528333789.421828,-2.926258,-1.138405,0.021277,-0.089538,0.907966,0.409362,0.000000,0.000000,0.000000,-1,-0.647574,-0.813173,-0.834661,0.437179,-0.330528,-0.298553
"2018-06-07 01:09:49.432 +0000",1528333789.431902,-2.922186,-1.131364,0.034718,-0.092594,0.904993,0.415224,0.000000,0.000000,0.000000,-1,-0.527100,-0.800403,-0.658494,0.422794,-0.390269,-0.310976
"2018-06-07 01:09:49.442 +0000",1528333789.441976,-2.920741,-1.126302,0.045098,-0.094196,0.902828,0.419555,0.000000,0.000000,0.000000,-1,-0.345549,-0.787377,-0.502904,0.390308,-0.441448,-0.322219
"2018-06-07 01:09:49.452 +0000",1528333789.452050,-2.921436,-1.123271,0.053378,-0.094501,0.901521,0.422289,0.000000,0.000000,0.000000,-1,-0.173135,-0.819235,-0.382919,0.347080,-0.472169,-0.324388
"2018-06-07 01:09:49.462 +0000",1528333789.462124,-2.923562,-1.122217,0.060157,-0.093809,0.901064,0.423417,0.000000,0.000000,0.000000,-1,0.005700,-0.811471,-0.283271,0.308302,-0.472078,-0.303345
"2018-06-07 01:09:49.472 +0000",1528333789.472198,-2.926164,-1.123243,0.065786,-0.092509,0.901509,0.422755,0.000000,0.000000,0.000000,-1,0.201334,-0.745452,-0.189946,0.275263,-0.450352,-0.262629
"2018-06-07 01:09:49.482 +0000",1528333789.482272,-2.929343,-1.126536,0.070059,-0.090539,0.902929,0.420143,0.000000,0.000000,0.000000,-1,0.410507,-0.680556,-0.081596,0.270623,-0.434499,-0.242440
"2018-06-07 01:09:49.492 +0000",1528333789.492346,-2.933464,-1.132161,0.072503,-0.087756,0.905332,0.415537,0.000000,0.000000,0.000000,-1,0.619478,-0.611377,0.052582,0.278537,-0.433866,-0.213877
"2018-06-07 01:09:49.502 +0000",1528333789.502420,-2.939568,-1.140069,0.072079,-0.083779,0.908662,0.409038,0.000000,0.000000,0.000000,-1,0.812435,-0.556663,0.222252,0.300866,-0.453203,-0.175777
"2018-06-07 01:09:49.512 +0000",1528333789.512494,-2.949042,-1.150206,0.067958,-0.078133,0.912848,0.400752,0.000000,0.000000,0.000000,-1,1.001115,-0.576689,0.411075,0.318093,-0.471320,-0.139750
"2018-06-07 01:09:49.523 +0000",1528333789.522568,-2.962965,-1.162937,0.059681,-0.070475,0.917972,0.390332,0.000000,0.000000,0.000000,-1,1.172899,-0.657220,0.619122,0.308039,-0.467975,-0.087613
"2018-06-07 01:09:49.533 +0000",1528333789.532642,-2.983182,-1.177002,0.045455,-0.060527,0.923460,0.378888,0.000000,0.000000,0.000000,-1,1.316285,-0.723573,0.830503,0.265025,-0.439497,-0.015271
"2018-06-07 01:09:49.543 +0000",1528333789.542716,-3.009860,-1.192355,0.024836,-0.048531,0.929242,0.366268,0.000000,0.000000,0.000000,-1,1.419828,-0.760343,1.029153,0.198219,-0.378033,0.047382
"2018-06-07 01:09:49.553 +0000",1528333789.552791,-3.042859,-1.208360,-0.001931,-0.034949,0.935036,0.352824,0.000000,0.000000,0.000000,-1,1.481820,-0.815649,1.169760,0.123938,-0.273811,0.086324
"2018-06-07 01:09:49.563 +0000",1528333789.562865,-3.081778,-1.224779,-0.033962,-0.020274,0.940731,0.338545,0.000000,0.000000,0.000000,-1,1.493940,-0.912533,1.244745,0.047618,-0.124371,0.105303
"2018-06-07 01:09:49.573 +0000",1528333789.572939,-3.125708,-1.239817,-0.069485,-0.005162,0.945724,0.324926,0.000000,0.000000,0.000000,-1,1.423975,-1.077256,1.212157,-0.048976,0.077744,0.151560
"2018-06-07 01:09:49.583 +0000",1528333789.583013,3.112855,-1.252832,-0.103861,0.008983,0.949874,0.312501,0.000000,0.000000,0.000000,-1,1.244937,-1.226245,1.019593,-0.159816,0.325731,0.294219
"2018-06-07 01:09:49.593 +0000",1528333789.593087,3.075931,-1.262657,-0.129501,0.019900,0.952900,0.302629,0.000000,0.000000,0.000000,-1,0.923431,-1.239755,0.624453,-0.316744,0.602353,0.536406
"2018-06-07 01:09:49.603 +0000",1528333789.603161,3.055418,-1.268973,-0.139073,0.025584,0.954796,0.296155,0.000000,0.000000,0.000000,-1,0.517626,-1.078438,0.106315,-0.443416,0.849998,0.757022
"2018-06-07 01:09:49.613 +0000",1528333789.613235,3.050788,-1.271282,-0.134171,0.026755,0.955480,0.293836,0.000000,0.000000,0.000000,-1,0.117737,-0.883840,-0.228880,-0.378074,0.969798,0.887942
"2018-06-07 01:09:49.623 +0000",1528333789.623309,3.055951,-1.270281,-0.120969,0.025320,0.955184,0.294924,0.000000,0.000000,0.000000,-1,-0.210754,-0.677549,-0.425446,-0.228491,0.809236,0.807127
"2018-06-07 01:09:49.633 +0000",1528333789.633383,3.071303,-1.266739,-0.100450,0.021027,0.954130,0.298651,0.000000,0.000000,0.000000,-1,-0.445883,-0.331573,-0.623971,-0.134140,0.486773,0.577616
"2018-06-07 01:09:49.643 +0000",1528333789.643457,3.092621,-1.262170,-0.076307,0.014869,0.952752,0.303383,0.000000,0.000000,0.000000,-1,-0.499016,-0.150258,-0.702920,0.071785,0.182823,0.378258
"2018-06-07 01:09:49.654 +0000",1528333789.653531,3.111040,-1.257813,-0.054811,0.009405,0.951419,0.307751,0.000000,0.000000,0.000000,-1,-0.437818,-0.221901,-0.593553,0.366586,-0.055637,0.263706
"2018-06-07 01:09:49.664 +0000",1528333789.663605,3.119021,-1.254527,-0.044391,0.007020,0.950402,0.310940,0.000000,0.000000,0.000000,-1,-0.292859,-0.177080,-0.190388,0.720977,0.004828,0.175434
"2018-06-07 01:09:49.674 +0000",1528333789.673679,3.108511,-1.252479,-0.051832,0.010352,0.949763,0.312793,0.000000,0.000000,0.000000,-1,-0.180345,-0.446984,0.373283,1.024850,0.399068,-0.056964
"2018-06-07 01:09:49.684 +0000",1528333789.683753,3.079880,-1.249340,-0.073549,0.019485,0.948776,0.315343,0.000000,0.000000,0.000000,-1,-0.338469,-0.886022,0.775735,1.094681,0.695816,-0.022160
"2018-06-07 01:09:49.694 +0000",1528333789.693827,3.048600,-1.242894,-0.098413,0.029905,0.946720,0.320662,0.000000,0.000000,0.000000,-1,-0.655167,-0.659845,0.819068,0.857958,0.764599,0.088105
"2018-06-07 01:09:49.704 +0000",1528333789.703901,3.032134,-1.234780,-0.114039,0.036019,0.944076,0.327751,0.000000,0.000000,0.000000,-1,-0.743510,-0.001102,0.479132,0.311439,0.518861,-0.190177
"2018-06-07 01:09:49.714 +0000",1528333789.713975,3.037076,-1.230087,-0.113546,0.034861,0.942518,0.332328,0.000000,0.000000,0.000000,-1,-0.339341,0.600794,-0.114874,-0.245554,0.077624,-0.584205
"2018-06-07 01:09:49.724 +0000",1528333789.724049,3.056488,-1.230450,-0.105050,0.028374,0.942639,0.332601,0.000000,0.000000,0.000000,-1,0.107702,1.292149,-0.284915,-0.341134,-0.334836,-0.645818
"2018-06-07 01:09:49.734 +0000",1528333789.734123,3.076656,-1.233605,-0.100312,0.021468,0.943688,0.330136,0.000000,0.000000,0.000000,-1,0.351086,1.608415,-0.149021,0.003068,-0.703682,-0.563535
"2018-06-07 01:09:49.744 +0000",1528333789.744197,3.093852,-1.238437,-0.098092,0.015570,0.945275,0.325898,0.000000,0.000000,0.000000,-1,0.513561,1.420872,-0.083248,0.114770,-0.867898,-0.630082
"2018-06-07 01:09:49.754 +0000",1528333789.754271,3.103092,-1.244873,-0.099590,0.012324,0.947355,0.319942,0.000000,0.000000,0.000000,-1,0.684057,0.920117,0.070873,0.173238,-0.878401,-0.778072
"2018-06-07 01:09:49.764 +0000",1528333789.764345,3.096986,-1.252915,-0.110967,0.013937,0.949900,0.312239,0.000000,0.000000,0.000000,-1,0.853144,0.313149,0.421532,0.289209,-0.778681,-0.900038
"2018-06-07 01:09:49.774 +0000",1528333789.774419,3.070509,-1.262074,-0.137577,0.021580,0.952723,0.303070,0.000000,0.000000,0.000000,-1,0.979368,-0.252666,0.877822,0.378018,-0.574808,-0.928955
"2018-06-07 01:09:49.784 +0000",1528333789.784493,3.022063,-1.271181,-0.181710,0.035195,0.955450,0.293042,0.000000,0.000000,0.000000,-1,1.035214,-0.746189,1.325878,0.433250,-0.246984,-0.838086
"2018-06-07 01:09:49.795 +0000",1528333789.794567,2.953776,-1.279207,-0.241174,0.053675,0.957788,0.282414,0.000000,0.000000,0.000000,-1,1.052099,-1.267857,1.653469,0.444830,0.121970,-0.681782
"2018-06-07 01:09:49.805 +0000",1528333789.804641,2.869172,-1.285566,-0.311459,0.075707,0.959597,0.270997,0.000000,0.000000,0.000000,-1,1.075616,-1.859047,1.809815,0.349296,0.383848,-0.554062
"2018-06-07 01:09:49.815 +0000",1528333789.814715,2.782038,-1.291233,-0.380069,0.097088,0.961176,0.258285,0.000000,0.000000,0.000000,-1,1.139018,-2.126610,1.519543,0.121281,0.726248,-0.384811
"2018-06-07 01:09:49.825 +0000",1528333789.824789,2.718662,-1.298040,-0.427295,0.110563,0.963032,0.245646,0.000000,0.000000,0.000000,-1,1.081824,-1.619452,0.698281,-0.179884,1.060085,-0.057108
"2018-06-07 01:09:49.835 +0000",1528333789.834863,2.691679,-1.306051,-0.445205,0.113791,0.965159,0.235618,0.000000,0.000000,0.000000,-1,0.870582,-0.718801,-0.080609,-0.314490,0.836950,0.209222
"2018-06-07 01:09:49.845 +0000",1528333789.844937,2.693776,-1.315477,-0.444146,0.109353,0.967583,0.227645,0.000000,0.000000,0.000000,-1,0.837189,0.373022,-0.517296,-0.189446,0.243370,0.251359
"2018-06-07 01:09:49.855 +0000",1528333789.855011,2.710719,-1.326341,-0.436828,0.101083,0.970269,0.219900,0.000000,0.000000,0.000000,-1,0.931910,1.157603,-0.638929,0.020712,-0.097726,0.059000
"2018-06-07 01:09:49.865 +0000",1528333789.865085,2.732798,-1.338756,-0.430515,0.091408,0.973199,0.211008,0.000000,0.000000,0.000000,-1,1.105695,1.680585,-0.629201,0.223045,-0.249719,-0.132395
"2018-06-07 01:09:49.875 +0000",1528333789.875160,2.752692,-1.351871,-0.427129,0.082346,0.976131,0.200956,0.000000,0.000000,0.000000,-1,1.185028,1.593768,-0.554340,0.357321,-0.299450,-0.270048
"2018-06-07 01:09:49.885 +0000",1528333789.885234,2.765758,-1.365337,-0.427753,0.074881,0.978967,0.189769,0.000000,0.000000,0.000000,-1,1.268656,1.274166,-0.462956,0.431772,-0.269129,-0.339366
"2018-06-07 01:09:49.895 +0000",1528333789.895308,2.768450,-1.378948,-0.434880,0.069505,0.981654,0.177544,0.000000,0.000000,0.000000,-1,1.315259,0.849976,-0.324463,0.457503,-0.204722,-0.338692
"2018-06-07 01:09:49.905 +0000",1528333789.905382,2.758108,-1.391796,-0.450377,0.066613,0.984022,0.165104,0.000000,0.000000,0.000000,-1,1.275685,0.357421,-0.170912,0.409812,-0.122175,-0.287785
"2018-06-07 01:09:49.915 +0000",1528333789.915456,2.736592,-1.403270,-0.472068,0.065697,0.986000,0.153246,0.000000,0.000000,0.000000,-1,1.163003,-0.130716,-0.072039,0.247994,-0.041954,-0.222963
"2018-06-07 01:09:49.926 +0000",1528333789.925530,2.707074,-1.413294,-0.498924,0.066026,0.987622,0.142267,0.000000,0.000000,0.000000,-1,1.062792,-0.320143,0.007237,0.077681,0.014880,-0.157404
"2018-06-07 01:09:49.936 +0000",1528333789.935604,2.676255,-1.422731,-0.528839,0.066193,0.989058,0.131828,0.000000,0.000000,0.000000,-1,1.043794,-0.021498,-0.017666,-0.075852,0.066331,-0.072121
"2018-06-07 01:09:49.946 +0000",1528333789.945678,2.655013,-1.433557,-0.554279,0.063967,0.990598,0.120920,0.000000,0.000000,0.000000,-1,1.155265,0.537415,-0.241105,-0.254656,0.126529,-0.037362
"2018-06-07 01:09:49.956 +0000",1528333789.955752,2.650710,-1.446973,-0.568069,0.058216,0.992344,0.108912,0.000000,0.000000,0.000000,-1,1.289476,1.039651,-0.546510,-0.352665,0.160305,-0.026514
"2018-06-07 01:09:49.966 +0000",1528333789.965826,2.666105,-1.462859,-0.564667,0.049308,0.994180,0.095765,0.000000,0.000000,0.000000,-1,1.347493,1.224517,-0.875253,-0.327552,0.165091,-0.020463
"2018-06-07 01:09:49.976 +0000",1528333789.975900,2.717460,-1.479464,-0.525286,0.037528,0.995832,0.083110,0.000000,0.000000,0.000000,-1,1.296883,1.191367,-1.119405,-0.229727,0.163103,0.008030
"2018-06-07 01:09:49.986 +0000",1528333789.985974,2.807896,-1.495147,-0.445948,0.024748,0.997140,0.071389,0.000000,0.000000,0.000000,-1,1.166235,1.103489,-1.192505,-0.053297,0.119513,0.080680
"2018-06-07 01:09:49.996 +0000",1528333789.996048,2.937833,-1.508346,-0.325559,0.012624,0.998051,0.061096,0.000000,0.000000,0.000000,-1,1.001953,0.922669,-1.114133,0.112361,0.064266,0.127365
"2018-06-07 01:09:50.006 +0000",1528333790.006122,3.091988,-1.519035,-0.178409,0.002564,0.998661,0.051648,0.000000,0.000000,0.000000,-1,0.884331,0.659274,-0.946829,0.219116,0.040677,0.085925
"2018-06-07 01:09:50.016 +0000",1528333790.016196,-3.014451,-1.526774,-0.007093,-0.005576,0.999031,0.043619,0.000000,0.000000,0.000000,-1,0.767230,0.531787,-0.727500,0.291663,-0.008492,0.058004
"2018-06-07 01:09:50.026 +0000",1528333790.026270,-2.839278,-1.532371,0.163466,-0.011427,0.999262,0.036640,0.000000,0.000000,0.000000,-1,0.663754,0.452648,-0.510213,0.300139,-0.058252,0.034161
"2018-06-07 01:09:50.036 +0000",1528333790.036344,-2.679743,-1.536321,0.318404,-0.015343,0.999406,0.030825,0.000000,0.000000,0.000000,-1,0.540505,0.482292,-0.330209,0.258004,-0.059953,0.029417
"2018-06-07 01:09:50.046 +0000",1528333790.046419,-2.544617,-1.539859,0.447952,-0.017364,0.999521,0.025547,0.000000,0.000000,0.000000,-1,0.477394,0.584738,-0.194235,0.202072,-0.025767,0.039776
"2018-06-07 01:09:50.056 +0000",1528333790.056493,-2.404645,-1.542776,0.581456,-0.018791,0.999607,0.020707,0.000000,0.000000,0.000000,-1,0.467211,0.664490,-0.109004,0.155678,0.014034,-0.005356
"2018-06-07 01:09:50.067 +0000",1528333790.066567,-2.248276,-1.545470,0.730370,-0.019682,0.999679,0.015834,0.000000,0.000000,0.000000,-1,0.469932,0.766409,-0.065688,0.130736,0.045075,-0.015728
"2018-06-07 01:09:50.077 +0000",1528333790.076641,-2.068186,-1.547719,0.902508,-0.020217,0.999734,0.010976,0.000000,0.000000,0.000000,-1,0.467576,0.800311,-0.036541,0.120040,0.057151,-0.028234
"2018-06-07 01:09:50.087 +0000",1528333790.086715,-1.845780,-1.550088,1.116747,-0.019851,0.999786,0.005601,0.000000,0.000000,0.000000,-1,0.499720,0.812255,0.016127,0.127716,0.039964,-0.067826
"2018-06-07 01:09:50.097 +0000",1528333790.096789,-1.581576,-1.551501,1.373167,-0.019194,0.999814,0.000207,0.000000,0.000000,0.000000,-1,0.525514,0.754960,0.083666,0.139418,0.005969,-0.083291
"2018-06-07 01:09:50.107 +0000",1528333790.106863,-1.274985,-1.552044,1.672408,-0.017840,0.999824,-0.005437,0.000000,0.000000,0.000000,-1,0.552361,0.729521,0.146994,0.113757,0.009331,-0.077235
"2018-06-07 01:09:50.117 +0000",1528333790.116937,-0.952116,-1.551223,1.988287,-0.015868,0.999808,-0.011297,0.000000,0.000000,0.000000,-1,0.575060,0.690919,0.204915,0.078078,0.016793,-0.072230
"2018-06-07 01:09:50.127 +0000",1528333790.127011,-0.637068,-1.549139,2.297155,-0.012830,0.999765,-0.017338,0.000000,0.000000,0.000000,-1,0.558930,0.600606,0.264925,0.053693,0.015936,-0.034496
"2018-06-07 01:09:50.137 +0000",1528333790.137085,-0.395267,-1.546360,2.533131,-0.009376,0.999701,-0.022473,0.000000,0.000000,0.000000,-1,0.480532,0.594529,0.353290,0.034660,0.041299,0.051999
"2018-06-07 01:09:50.147 +0000",1528333790.147159,-0.184283,-1.543600,2.737612,-0.004970,0.999630,-0.026661,0.000000,0.000000,0.000000,-1,0.388377,0.677323,0.444096,0.031672,0.070148,0.123509
"2018-06-07 01:09:50.157 +0000",1528333790.157233,0.047235,-1.540737,2.962094,0.001416,0.999548,-0.029949,0.000000,0.000000,0.000000,-1,0.325571,0.712937,0.548681,0.055637,0.078699,0.120999
"2018-06-07 01:09:50.167 +0000",1528333790.167307,0.264136,-1.536442,-3.111376,0.008953,0.999410,-0.033104,0.000000,0.000000,0.000000,-1,0.281751,0.725583,0.645626,0.089222,0.063487,0.100120
"2018-06-07 01:09:50.177 +0000",1528333790.177381,0.448155,-1.530622,-2.934778,0.017383,0.999193,-0.036157,0.000000,0.000000,0.000000,-1,0.259166,0.758182,0.710311,0.085247,0.057905,0.085702
"2018-06-07 01:09:50.187 +0000",1528333790.187455,0.588358,-1.523936,-2.802584,0.025980,0.998902,-0.038940,0.000000,0.000000,0.000000,-1,0.249306,0.819440,0.755689,0.053305,0.083083,0.058837
"2018-06-07 01:09:50.198 +0000",1528333790.197529,0.691841,-1.516672,-2.707423,0.034495,0.998536,-0.041639,0.000000,0.000000,0.000000,-1,0.254275,0.839069,0.790155,0.028265,0.122116,0.014264
"2018-06-07 01:09:50.208 +0000",1528333790.207603,0.775451,-1.509233,-2.631800,0.043054,0.998106,-0.043919,0.000000,0.000000,0.000000,-1,0.247763,0.791708,0.823378,0.019492,0.170641,-0.018917
"2018-06-07 01:09:50.218 +0000",1528333790.217678,0.848379,-1.501557,-2.566106,0.051888,0.997604,-0.045732,0.000000,0.000000,0.000000,-1,0.200344,0.710216,0.853367,0.014732,0.213334,-0.009093
"2018-06-07 01:09:50.228 +0000",1528333790.227752,0.915869,-1.493981,-2.504826,0.060848,0.997051,-0.046732,0.000000,0.000000,0.000000,-1,0.112140,0.607837,0.862952,-0.002499,0.244816,0.015222
"2018-06-07 01:09:50.238 +0000",1528333790.237826,0.975635,-1.486947,-2.450517,0.069339,0.996487,-0.046947,0.000000,0.000000,0.000000,-1,0.046544,0.540971,0.796218,-0.028629,0.325184,-0.004597
"2018-06-07 01:09:50.248 +0000",1528333790.247900,1.019290,-1.480746,-2.410195,0.076585,0.995948,-0.047114,0.000000,0.000000,0.000000,-1,0.016719,0.251845,0.612585,-0.099138,0.489861,-0.057333
"2018-06-07 01:09:50.258 +0000",1528333790.257974,1.047204,-1.477716,-2.381007,0.080483,0.995671,-0.046466,0.000000,0.000000,0.000000,-1,-0.118132,-0.219319,0.313570,-0.310662,0.663341,-0.094708
"2018-06-07 01:09:50.268 +0000",1528333790.268048,1.078852,-1.478692,-2.346779,0.081057,0.995761,-0.043437,0.000000,0.000000,0.000000,-1,-0.399226,-0.201165,-0.013805,-0.534319,0.642895,0.092952
"2018-06-07 01:09:50.278 +0000",1528333790.278122,1.130579,-1.483365,-2.295255,0.078982,0.996180,-0.037204,0.000000,0.000000,0.000000,-1,-0.683313,0.124028,-0.262834,-0.530459,0.450277,0.387561
"2018-06-07 01:09:50.288 +0000",1528333790.288196,1.207767,-1.489693,-2.220570,0.075721,0.996713,-0.028764,0.000000,0.000000,0.000000,-1,-0.884174,0.305134,-0.389849,-0.286766,0.274054,0.429643
"2018-06-07 01:09:50.298 +0000",1528333790.298270,1.328121,-1.496633,-2.102696,0.071909,0.997251,-0.017801,0.000000,0.000000,0.000000,-1,-1.139482,0.260449,-0.374335,0.019644,0.126330,0.415247
"2018-06-07 01:09:50.308 +0000",1528333790.308344,1.514094,-1.501977,-1.919007,0.068636,0.997633,-0.003896,0.000000,0.000000,0.000000,-1,-1.438268,0.301087,-0.315448,0.190748,0.060167,0.416951
"2018-06-07 01:09:50.318 +0000",1528333790.318418,1.767897,-1.503717,-1.669641,0.065711,0.997751,0.013122,0.000000,0.000000,0.000000,-1,-1.734983,0.567973,-0.280647,0.217416,0.037192,0.394471
"2018-06-07 01:09:50.328 +0000",1528333790.328492,2.053676,-1.499580,-1.390394,0.063004,0.997465,0.033031,0.000000,0.000000,0.000000,-1,-2.014474,0.753857,-0.290223,0.205352,0.017824,0.309681
"2018-06-07 01:09:50.339 +0000",1528333790.338566,2.321857,-1.489385,-1.129523,0.059430,0.996688,0.055483,0.000000,0.000000,0.000000,-1,-2.240027,0.803900,-0.331511,0.195437,0.033219,0.206587
"2018-06-07 01:09:50.349 +0000",1528333790.348640,2.534701,-1.473550,-0.923578,0.055366,0.995275,0.079744,0.000000,0.000000,0.000000,-1,-2.412019,0.743157,-0.358185,0.221657,0.078852,0.158965
"2018-06-07 01:09:50.359 +0000",1528333790.358714,2.686675,-1.453462,-0.777640,0.051432,0.993124,0.105149,0.000000,0.000000,0.000000,-1,-2.525730,0.658118,-0.311919,0.281973,0.156305,0.109970
"2018-06-07 01:09:50.369 +0000",1528333790.368788,2.784937,-1.430594,-0.685082,0.048787,0.990188,0.130941,0.000000,0.000000,0.000000,-1,-2.565593,0.649773,-0.180623,0.352244,0.262315,0.046793
"2018-06-07 01:09:50.379 +0000",1528333790.378862,2.849803,-1.406531,-0.625401,0.047039,0.986539,0.156607,0.000000,0.000000,0.000000,-1,-2.536934,0.547298,-0.070196,0.358646,0.360690,-0.018408
"2018-06-07 01:09:50.389 +0000",1528333790.388936,2.893838,-1.383118,-0.585492,0.045753,0.982440,0.180876,0.000000,0.000000,0.000000,-1,-2.378410,0.449945,-0.048253,0.275948,0.417874,-0.073851
"2018-06-07 01:09:50.399 +0000",1528333790.399011,2.927154,-1.361349,-0.555869,0.044244,0.978146,0.203151,0.000000,0.000000,0.000000,-1,-2.191239,0.430811,-0.073477,0.184852,0.411197,-0.071056
"2018-06-07 01:09:50.409 +0000",1528333790.409085,2.952811,-1.341222,-0.535342,0.042704,0.973763,0.223515,0.000000,0.000000,0.000000,-1,-2.018292,0.616715,-0.049668,0.133810,0.351905,-0.005955
"2018-06-07 01:09:50.419 +0000",1528333790.419159,2.975989,-1.322590,-0.519388,0.040497,0.969355,0.242301,0.000000,0.000000,0.000000,-1,-1.842033,0.806012,-0.047370,0.100662,0.273291,-0.026313
"2018-06-07 01:09:50.429 +0000",1528333790.429233,2.999362,-1.305525,-0.504636,0.037163,0.965021,0.259520,0.000000,0.000000,0.000000,-1,-1.698658,0.926419,-0.131248,0.066826,0.205709,-0.114608
"2018-06-07 01:09:50.439 +0000",1528333790.439307,3.023679,-1.289484,-0.489630,0.032659,0.960692,0.275686,0.000000,0.000000,0.000000,-1,-1.615143,0.995042,-0.209762,0.111018,0.131319,-0.180136
"2018-06-07 01:09:50.449 +0000",1528333790.449381,3.047946,-1.274047,-0.475177,0.027343,0.956292,0.291129,0.000000,0.000000,0.000000,-1,-1.579987,1.055819,-0.281734,0.183961,0.053062,-0.208670
"2018-06-07 01:09:50.459 +0000",1528333790.459455,3.074279,-1.258646,-0.459324,0.020656,0.951675,0.306407,0.000000,0.000000,0.000000,-1,-1.552052,1.125434,-0.371950,0.235722,0.009537,-0.213161
"2018-06-07 01:09:50.470 +0000",1528333790.469529,3.102817,-1.243966,-0.441434,0.012445,0.947065,0.320798,0.000000,0.000000,0.000000,-1,-1.454333,1.154856,-0.517300,0.244528,0.007083,-0.232465
"2018-06-07 01:09:50.480 +0000",1528333790.479603,3.133924,-1.230580,-0.421009,0.002559,0.942682,0.333678,0.000000,0.000000,0.000000,-1,-1.305058,1.177881,-0.673543,0.244176,0.032019,-0.256987
"2018-06-07 01:09:50.490 +0000",1528333790.489677,-3.114850,-1.218547,-0.397462,-0.009225,0.938599,0.344884,0.000000,0.000000,0.000000,-1,-1.184853,1.242746,-0.879078,0.212228,0.088531,-0.215321
"2018-06-07 01:09:50.500 +0000",1528333790.499751,-3.074804,-1.206353,-0.368725,-0.023788,0.934322,0.355631,0.000000,0.000000,0.000000,-1,-1.163179,1.320627,-1.112316,0.164199,0.162235,-0.112756
"2018-06-07 01:09:50.510 +0000",1528333790.509825,-3.031728,-1.193203,-0.336366,-0.040423,0.929555,0.366458,0.000000,0.000000,0.000000,-1,-1.208723,1.248949,-1.327549,0.175494,0.217448,-0.074084
"2018-06-07 01:09:50.520 +0000",1528333790.519899,-2.989330,-1.178776,-0.302157,-0.057948,0.924139,0.377633,0.000000,0.000000,0.000000,-1,-1.269235,0.988171,-1.485214,0.223338,0.229425,-0.130120
"2018-06-07 01:09:50.530 +0000",1528333790.529973,-2.950957,-1.163292,-0.268693,-0.075095,0.918113,0.389136,0.000000,0.000000,0.000000,-1,-1.336534,0.673292,-1.573103,0.292014,0.181069,-0.165503
"2018-06-07 01:09:50.540 +0000",1528333790.540047,-2.916843,-1.146412,-0.236362,-0.091765,0.911293,0.401400,0.000000,0.000000,0.000000,-1,-1.381024,0.386869,-1.625465,0.315077,0.135949,-0.171602
"2018-06-07 01:09:50.550 +0000",1528333790.550121,-2.886816,-1.128688,-0.206404,-0.107829,0.903852,0.414031,0.000000,0.000000,0.000000,-1,-1.419744,0.264924,-1.628958,0.296626,0.106433,-0.144119
"2018-06-07 01:09:50.560 +0000",1528333790.560195,-2.860328,-1.109956,-0.179424,-0.123435,0.895679,0.427222,0.000000,0.000000,0.000000,-1,-1.514321,0.192145,-1.613894,0.256705,0.080349,-0.117469
"2018-06-07 01:09:50.570 +0000",1528333790.570269,-2.838782,-1.090343,-0.156531,-0.137823,0.886786,0.441150,0.000000,0.000000,0.000000,-1,-1.621872,0.091669,-1.547250,0.250327,0.060190,-0.110629
"2018-06-07 01:09:50.580 +0000",1528333790.580344,-2.821759,-1.069440,-0.136871,-0.151108,0.876932,0.456239,0.000000,0.000000,0.000000,-1,-1.719754,-0.077856,-1.500191,0.270722,0.024878,-0.146867
"2018-06-07 01:09:50.590 +0000",1528333790.590418,-2.809196,-1.047307,-0.120064,-0.163123,0.866080,0.472539,0.000000,0.000000,0.000000,-1,-1.856364,-0.241925,-1.471313,0.265982,-0.031852,-0.139242
"2018-06-07 01:09:50.600 +0000",1528333790.600492,-2.800938,-1.024510,-0.105453,-0.173572,0.854460,0.489662,0.000000,0.000000,0.000000,-1,-1.904715,-0.494697,-1.435365,0.266330,-0.071226,-0.187370
"2018-06-07 01:09:50.611 +0000",1528333790.610566,-2.796546,-1.001898,-0.092407,-0.182211,0.842495,0.506951,0.000000,0.000000,0.000000,-1,-1.915193,-0.708888,-1.412300,0.267798,-0.083736,-0.268532
"2018-06-07 01:09:50.621 +0000",1528333790.620640,-2.794089,-0.979107,-0.079689,-0.189947,0.830000,0.524422,0.000000,0.000000,0.000000,-1,-1.886633,-0.847090,-1.421373,0.253423,-0.097364,-0.291512
"2018-06-07 01:09:50.631 +0000",1528333790.630714,-2.793477,-0.956546,-0.067444,-0.196606,0.817206,0.541773,0.000000,0.000000,0.000000,-1,-1.862468,-0.964542,-1.407786,0.258633,-0.103613,-0.303721
"2018-06-07 01:09:50.641 +0000",1528333790.640788,-2.794721,-0.934252,-0.055923,-0.202077,0.804154,0.559015,0.000000,0.000000,0.000000,-1,-1.848991,-1.079926,-1.370505,0.265691,-0.092835,-0.302911
"2018-06-07 01:09:50.651 +0000",1528333790.650862,-2.797491,-0.912924,-0.045398,-0.206268,0.791295,0.575590,0.000000,0.000000,0.000000,-1,-1.805352,-1.117407,-1.304024,0.269393,-0.080556,-0.283979
"2018-06-07 01:09:50.661 +0000",1528333790.660936,-2.801619,-0.891916,-0.036003,-0.209388,0.778277,0.591979,0.000000,0.000000,0.000000,-1,-1.758668,-1.147250,-1.224620,0.288718,-0.089769,-0.282073
"2018-06-07 01:09:50.671 +0000",1528333790.671010,-2.806708,-0.871550,-0.027536,-0.211538,0.765328,0.607883,0.000000,0.000000,0.000000,-1,-1.722410,-1.155113,-1.158036,0.315619,-0.100822,-0.276539
"2018-06-07 01:09:50.681 +0000",1528333790.681084,-2.812624,-0.851802,-0.020025,-0.212781,0.752468,0.623308,0.000000,0.000000,0.000000,-1,-1.679976,-1.152043,-1.076376,0.339337,-0.117703,-0.259218
"2018-06-07 01:09:50.691 +0000",1528333790.691158,-2.818369,-0.833624,-0.012835,-0.213506,0.740372,0.637386,0.000000,0.000000,0.000000,-1,-1.569131,-1.095987,-1.019457,0.342076,-0.138428,-0.273785
"2018-06-07 01:09:50.701 +0000",1528333790.701232,-2.824037,-0.816426,-0.006063,-0.213834,0.728703,0.650587,0.000000,0.000000,0.000000,-1,-1.443639,-1.039922,-0.955043,0.331159,-0.156682,-0.273619
"2018-06-07 01:09:50.711 +0000",1528333790.711307,-2.829402,-0.800634,0.000401,-0.213849,0.717798,0.662595,0.000000,0.000000,0.000000,-1,-1.323406,-0.976187,-0.890594,0.333875,-0.180917,-0.247678
"2018-06-07 01:09:50.721 +0000",1528333790.721381,-2.834021,-0.786402,0.006614,-0.213857,0.707816,0.673244,0.000000,0.000000,0.000000,-1,-1.175915,-0.876159,-0.823951,0.336492,-0.182410,-0.224697
"2018-06-07 01:09:50.731 +0000",1528333790.731455,-2.838102,-0.774335,0.012597,-0.213645,0.699241,0.682213,0.000000,0.000000,0.000000,-1,-1.015844,-0.820042,-0.748859,0.341834,-0.187491,-0.234200
"2018-06-07 01:09:50.742 +0000",1528333790.741529,-2.842641,-0.763584,0.017886,-0.212749,0.691514,0.690321,0.000000,0.000000,0.000000,-1,-0.870584,-0.815647,-0.653446,0.343379,-0.201097,-0.254881
"2018-06-07 01:09:50.752 +0000",1528333790.751603,-2.847198,-0.754535,0.022673,-0.211408,0.684950,0.697243,0.000000,0.000000,0.000000,-1,-0.723153,-0.765076,-0.572964,0.332242,-0.210829,-0.255623
"2018-06-07 01:09:50.762 +0000",1528333790.761677,-2.851390,-0.747097,0.026974,-0.209935,0.679512,0.702985,0.000000,0.000000,0.000000,-1,-0.582046,-0.682684,-0.493449,0.314702,-0.209449,-0.244306
"2018-06-07 01:09:50.772 +0000",1528333790.771751,-2.854529,-0.741711,0.031080,-0.208761,0.675551,0.707141,0.000000,0.000000,0.000000,-1,-0.435591,-0.563979,-0.431052,0.309225,-0.206419,-0.230715
"2018-06-07 01:09:50.782 +0000",1528333790.781825,-2.857062,-0.737342,0.034872,-0.207795,0.672323,0.710494,0.000000,0.000000,0.000000,-1,-0.305840,-0.490297,-0.376277,0.307710,-0.202306,-0.224379
"2018-06-07 01:09:50.792 +0000",1528333790.791899,-2.859433,-0.734388,0.038499,-0.206662,0.670133,0.712888,0.000000,0.000000,0.000000,-1,-0.172860,-0.479170,-0.323842,0.316205,-0.223539,-0.240949
"2018-06-07 01:09:50.802 +0000",1528333790.801974,-2.862260,-0.732917,0.041767,-0.204918,0.669041,0.714416,0.000000,0.000000,0.000000,-1,-0.038936,-0.504342,-0.253230,0.328422,-0.264713,-0.225692
"2018-06-07 01:09:50.812 +0000",1528333790.812048,-2.865412,-0.733462,0.044575,-0.202565,0.669446,0.714708,0.000000,0.000000,0.000000,-1,0.098013,-0.509804,-0.168583,0.306096,-0.292569,-0.194902
"2018-06-07 01:09:50.822 +0000",1528333790.822122,-2.868955,-0.735082,0.046787,-0.199739,0.670648,0.714376,0.000000,0.000000,0.000000,-1,0.232941,-0.495459,-0.096782,0.268480,-0.291238,-0.165716
"2018-06-07 01:09:50.832 +0000",1528333790.832196,-2.872424,-0.738045,0.048658,-0.196731,0.672843,0.713146,0.000000,0.000000,0.000000,-1,0.346952,-0.462452,-0.038863,0.234390,-0.278220,-0.131008
"2018-06-07 01:09:50.842 +0000",1528333790.842270,-2.875857,-0.742201,0.050074,-0.193546,0.675912,0.711112,0.000000,0.000000,0.000000,-1,0.451471,-0.424000,0.023397,0.193652,-0.253854,-0.094825
"2018-06-07 01:09:50.852 +0000",1528333790.852344,-2.879072,-0.748033,0.051095,-0.190232,0.680199,0.707913,0.000000,0.000000,0.000000,-1,0.560165,-0.384452,0.088878,0.140961,-0.230415,-0.079967
"2018-06-07 01:09:50.862 +0000",1528333790.862418,-2.882554,-0.754614,0.051434,-0.186615,0.685007,0.704228,0.000000,0.000000,0.000000,-1,0.662522,-0.368007,0.161835,0.110046,-0.207468,-0.078328
"2018-06-07 01:09:50.872 +0000",1528333790.872492,-2.886785,-0.762418,0.051091,-0.182281,0.690672,0.699817,0.000000,0.000000,0.000000,-1,0.771181,-0.410854,0.242135,0.084930,-0.182173,-0.095432
"2018-06-07 01:09:50.883 +0000",1528333790.882566,-2.892366,-0.771570,0.049978,-0.176806,0.697262,0.694667,0.000000,0.000000,0.000000,-1,0.893518,-0.503076,0.325487,0.068209,-0.177776,-0.100399
"2018-06-07 01:09:50.893 +0000",1528333790.892640,-2.899779,-0.782933,0.047870,-0.169743,0.705361,0.688223,0.000000,0.000000,0.000000,-1,1.058704,-0.620557,0.439861,0.058644,-0.207086,-0.102193
"2018-06-07 01:09:50.903 +0000",1528333790.902714,-2.909579,-0.796219,0.044260,-0.160821,0.714717,0.680672,0.000000,0.000000,0.000000,-1,1.280288,-0.747941,0.597103,0.059259,-0.265544,-0.103020
"2018-06-07 01:09:50.913 +0000",1528333790.912788,-2.921708,-0.812155,0.038438,-0.150050,0.725771,0.671371,0.000000,0.000000,0.000000,-1,1.504634,-0.788761,0.794389,0.066264,-0.342806,-0.087615
"2018-06-07 01:09:50.923 +0000",1528333790.922862,-2.935313,-0.829868,0.029897,-0.138248,0.737842,0.660663,0.000000,0.000000,0.000000,-1,1.610252,-0.688248,0.979450,0.108432,-0.411045,0.008252
"2018-06-07 01:09:50.933 +0000",1528333790.932936,-2.948210,-0.847497,0.018961,-0.127196,0.749626,0.649523,0.000000,0.000000,0.000000,-1,1.481257,-0.389226,1.053759,0.137343,-0.384880,0.127866
"2018-06-07 01:09:50.943 +0000",1528333790.943010,-2.959242,-0.862166,0.008393,-0.118016,0.759254,0.640003,0.000000,0.000000,0.000000,-1,1.253458,-0.317827,0.892066,0.161717,-0.175895,0.210308
"2018-06-07 01:09:50.953 +0000",1528333790.953084,-2.971392,-0.875962,0.000834,-0.108447,0.768160,0.631006,0.000000,0.000000,0.000000,-1,1.297589,-0.771261,0.672290,0.245684,0.218321,0.198156
"2018-06-07 01:09:50.963 +0000",1528333790.963158,-2.988327,-0.891626,-0.006468,-0.095897,0.778094,0.620783,0.000000,0.000000,0.000000,-1,1.506516,-1.203474,0.737245,0.413402,0.511976,0.128942
"2018-06-07 01:09:50.973 +0000",1528333790.973232,-3.007487,-0.908873,-0.016258,-0.082179,0.788812,0.609115,0.000000,0.000000,0.000000,-1,1.585364,-1.070889,0.848241,0.542155,0.566230,0.070572
"2018-06-07 01:09:50.983 +0000",1528333790.983306,-3.022525,-0.926377,-0.025648,-0.071359,0.799449,0.596480,0.000000,0.000000,0.000000,-1,1.683458,-0.626662,0.739593,0.370569,0.617070,-0.034056
"2018-06-07 01:09:50.993 +0000",1528333790.993380,-3.029784,-0.944815,-0.031484,-0.065372,0.810388,0.582233,0.000000,0.000000,0.000000,-1,1.803610,-0.133473,0.487976,0.127765,0.613928,-0.164631
"2018-06-07 01:09:51.003 +0000",1528333791.003454,-3.029969,-0.963788,-0.034423,-0.063539,0.821358,0.566862,0.000000,0.000000,0.000000,-1,1.860912,0.339290,0.353689,0.082537,0.427238,-0.154600
"2018-06-07 01:09:51.014 +0000",1528333791.013528,-3.025309,-0.982808,-0.036465,-0.064356,0.832058,0.550941,0.000000,0.000000,0.000000,-1,1.807455,0.726915,0.291476,0.180460,0.197864,-0.147453
"2018-06-07 01:09:51.024 +0000",1528333791.023602,-3.018477,-1.001072,-0.037738,-0.066241,0.842049,0.535316,0.000000,0.000000,0.000000,-1,1.792697,0.764189,0.293769,0.316668,0.052894,-0.136665
"2018-06-07 01:09:51.034 +0000",1528333791.033677,-3.014504,-1.019627,-0.040852,-0.066375,0.851913,0.519459,0.000000,0.000000,0.000000,-1,1.804353,0.626412,0.434251,0.422393,0.046326,-0.107029
"2018-06-07 01:09:51.044 +0000",1528333791.043751,-3.014425,-1.038212,-0.047612,-0.064397,0.861498,0.503660,0.000000,0.000000,0.000000,-1,1.779836,0.571759,0.624541,0.369816,0.121245,-0.126570
"2018-06-07 01:09:51.054 +0000",1528333791.053825,-3.019712,-1.057072,-0.059143,-0.059746,0.870920,0.487777,0.000000,0.000000,0.000000,-1,1.736476,0.443497,0.815732,0.297814,0.162390,-0.239974
"2018-06-07 01:09:51.064 +0000",1528333791.063899,-3.029562,-1.074704,-0.073988,-0.053214,0.879449,0.473006,0.000000,0.000000,0.000000,-1,1.619131,0.269219,0.935966,0.270469,0.139166,-0.249877
"2018-06-07 01:09:51.074 +0000",1528333791.073973,-3.043175,-1.090581,-0.091325,-0.045392,0.886896,0.459732,0.000000,0.000000,0.000000,-1,1.433051,0.143398,0.973673,0.210126,0.100821,-0.188126
"2018-06-07 01:09:51.084 +0000",1528333791.084047,-3.058814,-1.104351,-0.109904,-0.037184,0.893173,0.448172,0.000000,0.000000,0.000000,-1,1.238976,0.074890,0.951330,0.159788,0.078324,-0.142615
"2018-06-07 01:09:51.094 +0000",1528333791.094121,-3.076185,-1.116961,-0.129337,-0.028655,0.898772,0.437476,0.000000,0.000000,0.000000,-1,1.129187,0.004562,0.895443,0.125274,0.068208,-0.165335
"2018-06-07 01:09:51.104 +0000",1528333791.104195,-3.093190,-1.128799,-0.147850,-0.020696,0.903899,0.427241,0.000000,0.000000,0.000000,-1,1.135841,-0.034768,0.854439,0.122029,0.062562,-0.241389
"2018-06-07 01:09:51.114 +0000",1528333791.114269,-3.110461,-1.141436,-0.166696,-0.012957,0.909232,0.416083,0.000000,0.000000,0.000000,-1,1.262035,-0.003579,0.830577,0.139773,0.062005,-0.292686
"2018-06-07 01:09:51.124 +0000",1528333791.124343,-3.125816,-1.155850,-0.184995,-0.006360,0.915138,0.403087,0.000000,0.000000,0.000000,-1,1.463039,0.193795,0.755395,0.112439,0.123070,-0.305263
"2018-06-07 01:09:51.134 +0000",1528333791.134417,-3.138764,-1.172372,-0.203039,-0.001097,0.921673,0.387962,0.000000,0.000000,0.000000,-1,1.635807,0.433994,0.658890,0.077468,0.192203,-0.261726
"2018-06-07 01:09:51.144 +0000",1528333791.144491,3.134412,-1.189704,-0.219035,0.002671,0.928259,0.371921,0.000000,0.000000,0.000000,-1,1.747697,0.468656,0.582364,0.044082,0.229883,-0.234012
"2018-06-07 01:09:51.155 +0000",1528333791.154565,3.126539,-1.208271,-0.233143,0.005338,0.935004,0.354592,0.000000,0.000000,0.000000,-1,1.882028,0.551917,0.449994,-0.021436,0.249291,-0.208092
"2018-06-07 01:09:51.165 +0000",1528333791.164639,3.123646,-1.227849,-0.243480,0.006035,0.941768,0.336206,0.000000,0.000000,0.000000,-1,1.964038,0.720810,0.281422,-0.110145,0.234456,-0.138085
"2018-06-07 01:09:51.175 +0000",1528333791.174713,3.123850,-1.247827,-0.252158,0.005631,0.948297,0.317329,0.000000,0.000000,0.000000,-1,1.936322,0.891326,0.176568,-0.149903,0.140601,-0.061332
"2018-06-07 01:09:51.185 +0000",1528333791.184787,3.128104,-1.266572,-0.258211,0.004041,0.954080,0.299522,0.000000,0.000000,0.000000,-1,1.832362,1.027244,0.156764,-0.137967,0.045219,-0.033073
"2018-06-07 01:09:51.195 +0000",1528333791.194861,3.133073,-1.284029,-0.264933,0.002410,0.959163,0.282838,0.000000,0.000000,0.000000,-1,1.702845,1.156310,0.183252,-0.075896,-0.028179,-0.015290
"2018-06-07 01:09:51.205 +0000",1528333791.204935,3.136764,-1.300316,-0.273171,0.001290,0.963643,0.267187,0.000000,0.000000,0.000000,-1,1.593285,1.140451,0.227558,-0.007668,-0.078358,-0.035147
"2018-06-07 01:09:51.215 +0000",1528333791.215009,3.134681,-1.316152,-0.286298,0.001741,0.967753,0.251889,0.000000,0.000000,0.000000,-1,1.522495,1.033487,0.295174,0.069762,-0.099223,-0.050275
"2018-06-07 01:09:51.225 +0000",1528333791.225083,3.128507,-1.330908,-0.301368,0.003109,0.971364,0.237569,0.000000,0.000000,0.000000,-1,1.448647,0.754126,0.371977,0.137272,-0.089925,-0.065663
"2018-06-07 01:09:51.235 +0000",1528333791.235157,3.113687,-1.344785,-0.320823,0.006252,0.974568,0.224000,0.000000,0.000000,0.000000,-1,1.367778,0.277226,0.429936,0.165882,-0.052845,-0.110017
"2018-06-07 01:09:51.245 +0000",1528333791.245231,3.091238,-1.358067,-0.343503,0.010626,0.977458,0.210855,0.000000,0.000000,0.000000,-1,1.321851,-0.113753,0.440736,0.157831,-0.003108,-0.112253
"2018-06-07 01:09:51.255 +0000",1528333791.255305,3.059968,-1.370562,-0.372279,0.016217,0.980020,0.198231,0.000000,0.000000,0.000000,-1,1.209640,-0.346818,0.446768,0.144687,0.001792,-0.022328
"2018-06-07 01:09:51.265 +0000",1528333791.265380,3.027674,-1.381393,-0.400413,0.021401,0.982117,0.187045,0.000000,0.000000,0.000000,-1,1.096534,-0.501818,0.422912,0.089775,0.001770,-0.003772
"2018-06-07 01:09:51.275 +0000",1528333791.275454,2.994475,-1.391270,-0.428097,0.026174,0.983928,0.176626,0.000000,0.000000,0.000000,-1,1.022620,-0.621383,0.351741,0.010539,0.007725,-0.033224
"2018-06-07 01:09:51.286 +0000",1528333791.285528,2.962894,-1.400651,-0.453177,0.030096,0.985560,0.166619,0.000000,0.000000,0.000000,-1,0.980423,-0.706698,0.249403,-0.051168,0.021291,-0.055962
"2018-06-07 01:09:51.296 +0000",1528333791.295602,2.930460,-1.410022,-0.478119,0.033546,0.987104,0.156517,0.000000,0.000000,0.000000,-1,0.950937,-0.783132,0.132003,-0.092277,0.031329,-0.076271
"2018-06-07 01:09:51.306 +0000",1528333791.305676,2.906852,-1.419140,-0.493883,0.035136,0.988522,0.146921,0.000000,0.000000,0.000000,-1,0.931969,-0.798022,0.005077,-0.113246,0.021396,-0.077845
"2018-06-07 01:09:51.316 +0000",1528333791.315750,2.889786,-1.428629,-0.503400,0.035300,0.989911,0.137210,0.000000,0.000000,0.000000,-1,0.958152,-0.746893,-0.128214,-0.119101,0.001864,-0.064243
"2018-06-07 01:09:51.326 +0000",1528333791.325824,2.882195,-1.438879,-0.503982,0.033736,0.991311,0.127124,0.000000,0.000000,0.000000,-1,0.993998,-0.672559,-0.291578,-0.118987,0.002844,-0.046970
"2018-06-07 01:09:51.336 +0000",1528333791.335898,2.883007,-1.450070,-0.496958,0.030793,0.992721,0.116415,0.000000,0.000000,0.000000,-1,1.026810,-0.575104,-0.473153,-0.104096,0.003754,-0.011740
"2018-06-07 01:09:51.346 +0000",1528333791.345972,2.903643,-1.461663,-0.471700,0.025669,0.994051,0.105834,0.000000,0.000000,0.000000,-1,1.046377,-0.396757,-0.581320,-0.064488,-0.017504,0.012574
"2018-06-07 01:09:51.356 +0000",1528333791.356046,2.935900,-1.473219,-0.436498,0.019895,0.995243,0.095353,0.000000,0.000000,0.000000,-1,1.035924,-0.236401,-0.607720,-0.006406,-0.050266,0.030043
"2018-06-07 01:09:51.366 +0000",1528333791.366120,2.979433,-1.484545,-0.391208,0.013905,0.996283,0.084999,0.000000,0.000000,0.000000,-1,1.028497,-0.125530,-0.611683,0.056087,-0.045584,0.034951
"2018-06-07 01:09:51.376 +0000",1528333791.376194,3.027439,-1.495914,-0.342829,0.008519,0.997198,0.074307,0.000000,0.000000,0.000000,-1,1.033443,0.019297,-0.589760,0.131358,-0.031606,0.056140
"2018-06-07 01:09:51.386 +0000",1528333791.386268,3.091917,-1.506552,-0.279020,0.003187,0.997937,0.064101,0.000000,0.000000,0.000000,-1,1.009596,0.092416,-0.502366,0.227526,-0.043118,0.065858
"2018-06-07 01:09:51.396 +0000",1528333791.396342,-3.120166,-1.516438,-0.208258,-0.001163,0.998523,0.054292,0.000000,0.000000,0.000000,-1,0.958499,0.018314,-0.404581,0.270405,-0.059314,0.034072
"2018-06-07 01:09:51.406 +0000",1528333791.406416,-3.044179,-1.525213,-0.131518,-0.004429,0.998961,0.045321,0.000000,0.000000,0.000000,-1,0.868524,-0.091052,-0.300355,0.269321,-0.070708,0.063337
"2018-06-07 01:09:51.416 +0000",1528333791.416490,-2.986451,-1.533209,-0.072430,-0.005800,0.999294,0.037084,0.000000,0.000000,0.000000,-1,0.762554,-0.132496,-0.173307,0.242174,-0.067378,0.119746
"2018-06-07 01:09:51.427 +0000",1528333791.426564,-2.922573,-1.539648,-0.007711,-0.006755,0.999515,0.030348,0.000000,0.000000,0.000000,-1,0.636758,-0.053107,-0.078131,0.193752,-0.047107,0.161196
"2018-06-07 01:09:51.437 +0000",1528333791.436638,-2.854452,-1.544888,0.059843,-0.007319,0.999664,0.024786,0.000000,0.000000,0.000000,-1,0.525058,0.099052,-0.049466,0.111567,-0.011612,0.165689
"2018-06-07 01:09:51.447 +0000",1528333791.446712,-2.767395,-1.549350,0.144962,-0.007814,0.999770,0.019897,0.000000,0.000000,0.000000,-1,0.475550,0.219654,-0.045775,0.061418,0.016496,0.113495
"2018-06-07 01:09:51.457 +0000",1528333791.456786,-2.666504,-1.553908,0.243272,-0.007682,0.999857,0.014934,0.000000,0.000000,0.000000,-1,0.458718,0.263527,-0.047760,0.039420,0.021856,0.040776
"2018-06-07 01:09:51.467 +0000",1528333791.466860,-2.480471,-1.557260,0.426359,-0.008231,0.999908,0.010580,0.000000,0.000000,0.000000,-1,0.418792,0.293064,-0.049734,0.027243,0.010666,0.005395
"2018-06-07 01:09:51.477 +0000",1528333791.476934,-2.226027,-1.559769,0.677888,-0.008620,0.999939,0.006625,0.000000,0.000000,0.000000,-1,0.379798,0.275310,-0.030335,0.036681,-0.005097,-0.010210
"2018-06-07 01:09:51.487 +0000",1528333791.487008,-1.906643,-1.561539,0.994690,-0.008570,0.999957,0.002991,0.000000,0.000000,0.000000,-1,0.354193,0.240974,0.025558,0.061380,-0.004428,-0.022462
"2018-06-07 01:09:51.497 +0000",1528333791.497082,-1.473169,-1.563501,1.426030,-0.007020,0.999973,-0.000687,0.000000,0.000000,0.000000,-1,0.331522,0.183462,0.112569,0.097321,-0.002369,-0.012145
"2018-06-07 01:09:51.507 +0000",1528333791.507157,-0.928118,-1.563868,1.969448,-0.005346,0.999976,-0.004002,0.000000,0.000000,0.000000,-1,0.329969,0.165610,0.180287,0.081853,0.016137,-0.009303
"2018-06-07 01:09:51.517 +0000",1528333791.517231,-0.411336,-1.562543,2.484797,-0.003216,0.999966,-0.007374,0.000000,0.000000,0.000000,-1,0.334937,0.168764,0.216856,0.038892,0.029117,-0.022076
"2018-06-07 01:09:51.527 +0000",1528333791.527305,-0.021450,-1.561550,2.872855,-0.000194,0.999957,-0.009054,0.000000,0.000000,0.000000,-1,0.340052,0.207146,0.229864,-0.001377,0.041776,-0.025660
"2018-06-07 01:09:51.537 +0000",1528333791.537379,0.225240,-1.558664,3.117343,0.002683,0.999926,-0.011710,0.000000,0.000000,0.000000,-1,0.336677,0.233374,0.255764,-0.009717,0.061200,-0.014718
"2018-06-07 01:09:51.547 +0000",1528333791.547453,0.368780,-1.554855,-3.024641,0.005719,0.999873,-0.014799,0.000000,0.000000,0.000000,-1,0.341688,0.226667,0.288002,0.016849,0.081319,-0.008074
"2018-06-07 01:09:51.558 +0000",1528333791.557527,0.476545,-1.550412,-2.918466,0.009328,0.999792,-0.018070,0.000000,0.000000,0.000000,-1,0.347705,0.128776,0.337183,0.032573,0.101663,-0.022534
"2018-06-07 01:09:51.568 +0000",1528333791.567601,0.577070,-1.545064,-2.818275,0.014016,0.999669,-0.021530,0.000000,0.000000,0.000000,-1,0.341892,0.008735,0.425050,0.061073,0.121501,-0.015259
"2018-06-07 01:09:51.578 +0000",1528333791.577675,0.677494,-1.539066,-2.717847,0.019868,0.999497,-0.024695,0.000000,0.000000,0.000000,-1,0.319131,0.010484,0.516537,0.073303,0.124222,0.044302
"2018-06-07 01:09:51.588 +0000",1528333791.587749,0.763059,-1.532841,-2.633404,0.026204,0.999280,-0.027402,0.000000,0.000000,0.000000,-1,0.267971,0.163703,0.594546,0.052562,0.114673,0.110822
"2018-06-07 01:09:51.598 +0000",1528333791.597823,0.837932,-1.526671,-2.561701,0.032765,0.999027,-0.029492,0.000000,0.000000,0.000000,-1,0.202228,0.369668,0.650154,0.048335,0.093518,0.153927
"2018-06-07 01:09:51.608 +0000",1528333791.607897,0.902154,-1.520544,-2.502188,0.039394,0.998738,-0.031123,0.000000,0.000000,0.000000,-1,0.170350,0.501180,0.681803,0.067814,0.088466,0.121303
"2018-06-07 01:09:51.618 +0000",1528333791.617971,0.965346,-1.513288,-2.444552,0.047239,0.998347,-0.032697,0.000000,0.000000,0.000000,-1,0.153215,0.576738,0.715407,0.101321,0.113210,0.066678
"2018-06-07 01:09:51.628 +0000",1528333791.628045,1.016777,-1.506247,-2.399028,0.054838,0.997917,-0.033925,0.000000,0.000000,0.000000,-1,0.154035,0.593089,0.743420,0.127200,0.146766,0.000570
"2018-06-07 01:09:51.638 +0000",1528333791.638119,1.057978,-1.498712,-2.363431,0.062743,0.997403,-0.035328,0.000000,0.000000,0.000000,-1,0.179032,0.555700,0.775523,0.134920,0.180362,-0.047832
"2018-06-07 01:09:51.648 +0000",1528333791.648193,1.091120,-1.490773,-2.336050,0.070901,0.996800,-0.036882,0.000000,0.000000,0.000000,-1,0.196691,0.596281,0.796038,0.126029,0.222362,-0.035902
"2018-06-07 01:09:51.658 +0000",1528333791.658267,1.122325,-1.482233,-2.311769,0.079686,0.996081,-0.038343,0.000000,0.000000,0.000000,-1,0.161915,0.731217,0.794359,0.104243,0.271284,0.016340
"2018-06-07 01:09:51.668 +0000",1528333791.668341,1.156268,-1.474638,-2.285437,0.087863,0.995380,-0.038662,0.000000,0.000000,0.000000,-1,0.070582,0.758447,0.784967,0.076764,0.314297,0.062420
"2018-06-07 01:09:51.678 +0000",1528333791.678415,1.196803,-1.467683,-2.250538,0.095801,0.994689,-0.037598,0.000000,0.000000,0.000000,-1,-0.098091,0.490218,0.761984,0.017542,0.369096,0.050202
"2018-06-07 01:09:51.688 +0000",1528333791.688489,1.244231,-1.461800,-2.204725,0.103018,0.994066,-0.034891,0.000000,0.000000,0.000000,-1,-0.306212,0.091430,0.694610,-0.088705,0.446761,0.022898
"2018-06-07 01:09:51.699 +0000",1528333791.698563,1.299386,-1.456873,-2.147692,0.109501,0.993518,-0.030471,0.000000,0.000000,0.000000,-1,-0.535996,-0.220433,0.565152,-0.207767,0.526807,0.047058
"2018-06-07 01:09:51.709 +0000",1528333791.708636,1.358823,-1.454924,-2.084543,0.113009,0.993294,-0.024320,0.000000,0.000000,0.000000,-1,-0.682824,-0.340393,0.277942,-0.339251,0.636421,0.031797
"2018-06-07 01:09:51.719 +0000",1528333791.718710,1.424034,-1.455834,-2.017034,0.113459,0.993399,-0.016772,0.000000,0.000000,0.000000,-1,-0.806840,-0.096901,-0.015792,-0.365199,0.575937,0.154559
"2018-06-07 01:09:51.729 +0000",1528333791.728784,1.502479,-1.458274,-1.939392,0.112006,0.993676,-0.007664,0.000000,0.000000,0.000000,-1,-0.925564,0.175710,-0.181452,-0.194892,0.283393,0.391209
"2018-06-07 01:09:51.739 +0000",1528333791.738858,1.593356,-1.460573,-1.849754,0.109956,0.993932,0.002481,0.000000,0.000000,0.000000,-1,-1.044672,0.171330,-0.262941,-0.055711,0.119106,0.359198
"2018-06-07 01:09:51.749 +0000",1528333791.748932,1.703668,-1.462267,-1.740252,0.107345,0.994116,0.014348,0.000000,0.000000,0.000000,-1,-1.215960,0.143349,-0.248647,0.066529,0.037652,0.317287
"2018-06-07 01:09:51.759 +0000",1528333791.759006,1.832232,-1.461381,-1.612827,0.105471,0.994020,0.028220,0.000000,0.000000,0.000000,-1,-1.414176,0.209386,-0.158722,0.197294,-0.003130,0.314111
"2018-06-07 01:09:51.769 +0000",1528333791.769081,1.968611,-1.457083,-1.477962,0.104593,0.993542,0.043952,0.000000,0.000000,0.000000,-1,-1.588297,0.229325,-0.055004,0.303427,0.001026,0.308297
"2018-06-07 01:09:51.779 +0000",1528333791.779155,2.096348,-1.449175,-1.351036,0.104936,0.992613,0.060858,0.000000,0.000000,0.000000,-1,-1.717972,0.146325,0.018196,0.339873,0.025560,0.302499
"2018-06-07 01:09:51.789 +0000",1528333791.789229,2.213202,-1.438574,-1.234231,0.105545,0.991271,0.078978,0.000000,0.000000,0.000000,-1,-1.833950,0.088648,0.082832,0.315400,0.047852,0.335130
"2018-06-07 01:09:51.799 +0000",1528333791.799303,2.316217,-1.425057,-1.131069,0.106702,0.989399,0.098494,0.000000,0.000000,0.000000,-1,-1.988737,0.084712,0.133730,0.248126,0.078991,0.390306
"2018-06-07 01:09:51.809 +0000",1528333791.809377,2.408234,-1.408606,-1.038832,0.108081,0.986876,0.119959,0.000000,0.000000,0.000000,-1,-2.204187,0.088434,0.150369,0.151883,0.135896,0.418554
"2018-06-07 01:09:51.819 +0000",1528333791.819451,2.490748,-1.389034,-0.957023,0.109510,0.983527,0.143801,0.000000,0.000000,0.000000,-1,-2.461379,0.245956,0.112693,0.038897,0.208215,0.417326
"2018-06-07 01:09:51.830 +0000",1528333791.829525,2.572056,-1.367289,-0.879074,0.108978,0.979364,0.170194,0.000000,0.000000,0.000000,-1,-2.652933,0.561005,-0.011802,-0.101410,0.299780,0.362444
"2018-06-07 01:09:51.840 +0000",1528333791.839599,2.647967,-1.344917,-0.810123,0.106114,0.974597,0.197218,0.000000,0.000000,0.000000,-1,-2.632148,0.950327,-0.167761,-0.180974,0.372250,0.187501
"2018-06-07 01:09:51.850 +0000",1528333791.849673,2.715579,-1.323539,-0.753909,0.101136,0.969587,0.222861,0.000000,0.000000,0.000000,-1,-2.417719,1.401330,-0.244387,-0.126084,0.404985,0.003808
"2018-06-07 01:09:51.860 +0000",1528333791.859747,2.773213,-1.304413,-0.712102,0.094792,0.964729,0.245575,0.000000,0.000000,0.000000,-1,-2.086874,1.809729,-0.293436,-0.008900,0.388985,-0.156830
"2018-06-07 01:09:51.870 +0000",1528333791.869821,2.826316,-1.288127,-0.676625,0.086485,0.960314,0.265163,0.000000,0.000000,0.000000,-1,-1.764848,1.871373,-0.382197,0.049029,0.328885,-0.341717
"2018-06-07 01:09:51.880 +0000",1528333791.879895,2.874080,-1.274561,-0.644980,0.077162,0.956442,0.281530,0.000000,0.000000,0.000000,-1,-1.478027,1.673988,-0.504976,0.104875,0.245019,-0.491354
"2018-06-07 01:09:51.890 +0000",1528333791.889969,2.919057,-1.263347,-0.613970,0.066789,0.953109,0.295158,0.000000,0.000000,0.000000,-1,-1.249835,1.484231,-0.653414,0.135512,0.137635,-0.504463
"2018-06-07 01:09:51.900 +0000",1528333791.900043,2.961492,-1.253716,-0.584102,0.055850,0.950150,0.306743,0.000000,0.000000,0.000000,-1,-1.104966,1.386315,-0.768049,0.159253,0.020584,-0.391628
"2018-06-07 01:09:51.910 +0000",1528333791.910117,3.005148,-1.244602,-0.552451,0.043586,0.947269,0.317455,0.000000,0.000000,0.000000,-1,-1.041211,1.345156,-0.858669,0.190637,-0.050861,-0.249157
"2018-06-07 01:09:51.920 +0000",1528333791.920191,3.049002,-1.235006,-0.520249,0.030466,0.944150,0.328097,0.000000,0.000000,0.000000,-1,-1.077274,1.322372,-0.946855,0.217642,-0.059263,-0.093524
"2018-06-07 01:09:51.930 +0000",1528333791.930265,3.092343,-1.224317,-0.487563,0.016718,0.940574,0.339170,0.000000,0.000000,0.000000,-1,-1.157435,1.206115,-1.025532,0.248099,-0.023445,0.004168
"2018-06-07 01:09:51.940 +0000",1528333791.940339,3.131376,-1.212344,-0.456624,0.003584,0.936441,0.350801,0.000000,0.000000,0.000000,-1,-1.266025,0.931580,-1.075562,0.288530,0.008811,0.024214
"2018-06-07 01:09:51.950 +0000",1528333791.950413,-3.116298,-1.198672,-0.426225,-0.009196,0.931557,0.363473,0.000000,0.000000,0.000000,-1,-1.372750,0.634955,-1.092315,0.318003,0.026893,-0.004998
"2018-06-07 01:09:51.960 +0000",1528333791.960487,-3.085250,-1.184084,-0.397431,-0.021238,0.926154,0.376541,0.000000,0.000000,0.000000,-1,-1.408981,0.360558,-1.127451,0.327619,0.040963,-0.085678
"2018-06-07 01:09:51.971 +0000",1528333791.970561,-3.057949,-1.168876,-0.370139,-0.032681,0.920311,0.389813,0.000000,0.000000,0.000000,-1,-1.445427,0.161830,-1.144080,0.315534,0.037391,-0.150982
"2018-06-07 01:09:51.981 +0000",1528333791.980635,-3.035866,-1.153072,-0.346301,-0.042811,0.914015,0.403410,0.000000,0.000000,0.000000,-1,-1.506409,0.003466,-1.116434,0.312403,-0.009275,-0.141813
"2018-06-07 01:09:51.991 +0000",1528333791.990709,-3.017438,-1.136471,-0.324886,-0.052109,0.907154,0.417554,0.000000,0.000000,0.000000,-1,-1.547809,-0.150656,-1.040417,0.312699,-0.052860,-0.150235
"2018-06-07 01:09:52.001 +0000",1528333792.000783,-3.003900,-1.119321,-0.307155,-0.059884,0.899805,0.432158,0.000000,0.000000,0.000000,-1,-1.605141,-0.268672,-0.945972,0.312524,-0.087243,-0.160659
"2018-06-07 01:09:52.011 +0000",1528333792.010857,-2.993940,-1.101420,-0.292681,-0.066544,0.891850,0.447403,0.000000,0.000000,0.000000,-1,-1.691846,-0.304375,-0.866280,0.309403,-0.126821,-0.116974
"2018-06-07 01:09:52.021 +0000",1528333792.020931,-2.986820,-1.082973,-0.280971,-0.072253,0.883355,0.463096,0.000000,0.000000,0.000000,-1,-1.763512,-0.311297,-0.833867,0.286089,-0.148919,-0.106391
"2018-06-07 01:09:52.031 +0000",1528333792.031005,-2.979992,-1.063973,-0.269540,-0.078099,0.874291,0.479073,0.000000,0.000000,0.000000,-1,-1.778230,-0.323427,-0.830641,0.271855,-0.154809,-0.149544
"2018-06-07 01:09:52.041 +0000",1528333792.041079,-2.974163,-1.045113,-0.258698,-0.083624,0.864981,0.494782,0.000000,0.000000,0.000000,-1,-1.750858,-0.370545,-0.832992,0.272589,-0.153128,-0.191132
"2018-06-07 01:09:52.051 +0000",1528333792.051153,-2.969094,-1.026657,-0.248185,-0.088856,0.855573,0.509993,0.000000,0.000000,0.000000,-1,-1.702497,-0.400040,-0.835339,0.253941,-0.132475,-0.226256
"2018-06-07 01:09:52.061 +0000",1528333792.061227,-2.965166,-1.008992,-0.238445,-0.093497,0.846295,0.524439,0.000000,0.000000,0.000000,-1,-1.645774,-0.429535,-0.832328,0.237204,-0.107114,-0.273844
"2018-06-07 01:09:52.071 +0000",1528333792.071301,-2.961594,-0.991437,-0.228626,-0.098015,0.836813,0.538637,0.000000,0.000000,0.000000,-1,-1.616365,-0.479977,-0.826088,0.234291,-0.100668,-0.281450
"2018-06-07 01:09:52.081 +0000",1528333792.081376,-2.959089,-0.974002,-0.219470,-0.101997,0.827141,0.552655,0.000000,0.000000,0.000000,-1,-1.610237,-0.521791,-0.798257,0.227424,-0.105187,-0.240292
"2018-06-07 01:09:52.091 +0000",1528333792.091450,-2.958293,-0.956598,-0.211657,-0.105045,0.817236,0.566643,0.000000,0.000000,0.000000,-1,-1.619108,-0.567104,-0.731679,0.219791,-0.110052,-0.199593
"2018-06-07 01:09:52.102 +0000",1528333792.101524,-2.959084,-0.939676,-0.205447,-0.107091,0.807367,0.580244,0.000000,0.000000,0.000000,-1,-1.596517,-0.561831,-0.665025,0.197240,-0.095713,-0.180097
"2018-06-07 01:09:52.112 +0000",1528333792.111598,-2.960400,-0.923076,-0.200301,-0.108728,0.797461,0.593487,0.000000,0.000000,0.000000,-1,-1.553132,-0.533551,-0.573612,0.202722,-0.103736,-0.173626
"2018-06-07 01:09:52.122 +0000",1528333792.121672,-2.962510,-0.907177,-0.196264,-0.109720,0.787768,0.606115,0.000000,0.000000,0.000000,-1,-1.494828,-0.521588,-0.508097,0.213068,-0.109530,-0.195028
"2018-06-07 01:09:52.132 +0000",1528333792.131746,-2.964865,-0.892119,-0.193042,-0.110365,0.778404,0.617979,0.000000,0.000000,0.000000,-1,-1.417618,-0.474426,-0.446825,0.211074,-0.121422,-0.219878
"2018-06-07 01:09:52.142 +0000",1528333792.141820,-2.968293,-0.878133,-0.190984,-0.110113,0.769548,0.629017,0.000000,0.000000,0.000000,-1,-1.342608,-0.495421,-0.364233,0.235800,-0.165361,-0.250202
"2018-06-07 01:09:52.152 +0000",1528333792.151894,-2.972691,-0.864967,-0.189789,-0.109040,0.761074,0.639428,0.000000,0.000000,0.000000,-1,-1.252912,-0.539450,-0.276363,0.270645,-0.221188,-0.277490
"2018-06-07 01:09:52.162 +0000",1528333792.161968,-2.978094,-0.852903,-0.189631,-0.107070,0.753193,0.649021,0.000000,0.000000,0.000000,-1,-1.153818,-0.543943,-0.186249,0.280303,-0.268452,-0.280491
"2018-06-07 01:09:52.172 +0000",1528333792.172042,-2.984257,-0.842119,-0.190264,-0.104334,0.746056,0.657653,0.000000,0.000000,0.000000,-1,-1.031493,-0.564779,-0.110219,0.276652,-0.299431,-0.272048
"2018-06-07 01:09:52.182 +0000",1528333792.182116,-2.990667,-0.832957,-0.191689,-0.101140,0.739923,0.665039,0.000000,0.000000,0.000000,-1,-0.897634,-0.505415,-0.041512,0.244924,-0.325052,-0.250167
"2018-06-07 01:09:52.192 +0000",1528333792.192190,-2.996388,-0.825027,-0.193243,-0.098180,0.734566,0.671391,0.000000,0.000000,0.000000,-1,-0.759312,-0.443699,-0.007228,0.212316,-0.331795,-0.260915
"2018-06-07 01:09:52.202 +0000",1528333792.202264,-3.001925,-0.818530,-0.194629,-0.095123,0.730142,0.676637,0.000000,0.000000,0.000000,-1,-0.612325,-0.455405,0.002082,0.192322,-0.335138,-0.299165
"2018-06-07 01:09:52.212 +0000",1528333792.212338,-3.008191,-0.813724,-0.196017,-0.091348,0.726850,0.680689,0.000000,0.000000,0.000000,-1,-0.444468,-0.547306,0.039078,0.201211,-0.358686,-0.325311
"2018-06-07 01:09:52.222 +0000",1528333792.222412,-3.015994,-0.810740,-0.198173,-0.086304,0.724797,0.683529,0.000000,0.000000,0.000000,-1,-0.293733,-0.620755,0.114890,0.209504,-0.395726,-0.303341
"2018-06-07 01:09:52.232 +0000",1528333792.232486,-3.024325,-0.809177,-0.201095,-0.080740,0.723720,0.685349,0.000000,0.000000,0.000000,-1,-0.138966,-0.611911,0.202764,0.184271,-0.404490,-0.265610
"2018-06-07 01:09:52.243 +0000",1528333792.242560,-3.032666,-0.809361,-0.204762,-0.075006,0.723846,0.685866,0.000000,0.000000,0.000000,-1,0.035898,-0.544721,0.264946,0.140008,-0.400116,-0.248900
"2018-06-07 01:09:52.253 +0000",1528333792.252634,-3.040455,-0.811456,-0.208722,-0.069508,0.725290,0.684919,0.000000,0.000000,0.000000,-1,0.230932,-0.466376,0.298072,0.081669,-0.379847,-0.231870
"2018-06-07 01:09:52.263 +0000",1528333792.262708,-3.047934,-0.816059,-0.212774,-0.064071,0.728451,0.682088,0.000000,0.000000,0.000000,-1,0.472382,-0.432824,0.310525,0.008453,-0.345013,-0.215520
"2018-06-07 01:09:52.273 +0000",1528333792.272782,-3.055034,-0.823038,-0.216606,-0.058785,0.733215,0.677444,0.000000,0.000000,0.000000,-1,0.733788,-0.424478,0.326085,-0.056113,-0.320953,-0.187225
"2018-06-07 01:09:52.283 +0000",1528333792.282856,-3.062555,-0.832606,-0.220829,-0.053133,0.739688,0.670842,0.000000,0.000000,0.000000,-1,0.984470,-0.444839,0.373856,-0.109236,-0.316440,-0.131810
"2018-06-07 01:09:52.293 +0000",1528333792.292930,-3.071262,-0.844712,-0.226157,-0.046657,0.747780,0.662298,0.000000,0.000000,0.000000,-1,1.234794,-0.487364,0.471043,-0.123433,-0.322182,-0.057943
"2018-06-07 01:09:52.303 +0000",1528333792.303004,-3.082845,-0.859682,-0.234086,-0.038321,0.757635,0.651545,0.000000,0.000000,0.000000,-1,1.496123,-0.559812,0.643412,-0.077005,-0.358603,0.008276
"2018-06-07 01:09:52.313 +0000",1528333792.313078,-3.097621,-0.877350,-0.245558,-0.028097,0.769048,0.638566,0.000000,0.000000,0.000000,-1,1.789416,-0.612727,0.891061,-0.006724,-0.425740,0.067946
"2018-06-07 01:09:52.323 +0000",1528333792.323152,-3.115937,-0.897368,-0.261440,-0.015998,0.781688,0.623457,0.000000,0.000000,0.000000,-1,1.981988,-0.561519,1.111276,0.089820,-0.492733,0.073595
"2018-06-07 01:09:52.333 +0000",1528333792.333226,-3.133261,-0.916701,-0.279621,-0.005069,0.793599,0.608413,0.000000,0.000000,0.000000,-1,1.848097,-0.211793,1.133037,0.223148,-0.515996,0.121400
"2018-06-07 01:09:52.343 +0000",1528333792.343300,3.133939,-0.934225,-0.297068,0.004550,0.804139,0.594417,0.000000,0.000000,0.000000,-1,1.709568,-0.232410,0.983780,0.412046,-0.459153,0.042546
