timestamp,timeIntervalSince1970,attitude.roll,attitude.pitch,attitude.yaw,gravity.x,gravity.y,gravity.z,magneticField.x,magneticField.y,magneticField.z,magneticField.accuracy,rotationRate.x,rotationRate.y,rotationRate.z,userAcceleration.x,userAcceleration.y,userAcceleration.z
"2018-06-07 00:59:22.107 +0000",1528333162.107437,-0.159271,0.146984,0.023521,-0.156888,-0.146455,-0.976697,0.000000,0.000000,0.000000,-1,-1.295945,0.057388,-0.217508,0.154096,0.074205,-0.176898
"2018-06-07 00:59:22.118 +0000",1528333162.117510,-0.158268,0.135955,0.021558,-0.156154,-0.135536,-0.978390,0.000000,0.000000,0.000000,-1,-1.045976,0.092078,0.053083,0.206614,0.108406,-0.162495
"2018-06-07 00:59:22.128 +0000",1528333162.127585,-0.157567,0.127067,0.022853,-0.155651,-0.126725,-0.979650,0.000000,0.000000,0.000000,-1,-0.786546,0.068586,0.329937,0.150569,0.089570,-0.180919
"2018-06-07 00:59:22.138 +0000",1528333162.137660,-0.158083,0.120382,0.026725,-0.156286,-0.120091,-0.980384,0.000000,0.000000,0.000000,-1,-0.532720,-0.019342,0.523792,0.113058,0.119389,-0.239709
"2018-06-07 00:59:22.148 +0000",1528333162.147733,-0.157923,0.115656,0.032407,-0.156217,-0.115399,-0.980958,0.000000,0.000000,0.000000,-1,-0.333295,0.137626,0.659323,0.112989,0.114697,-0.239134
"2018-06-07 00:59:22.158 +0000",1528333162.157807,-0.154772,0.111558,0.039497,-0.153196,-0.111327,-0.981905,0.000000,0.000000,0.000000,-1,-0.296766,0.489595,0.782887,0.076414,0.134093,-0.077818
"2018-06-07 00:59:22.168 +0000",1528333162.167881,-0.147471,0.106332,0.047505,-0.146107,-0.106132,-0.983559,0.000000,0.000000,0.000000,-1,-0.436578,0.915823,0.882330,0.088978,0.092231,0.040856
"2018-06-07 00:59:22.178 +0000",1528333162.177956,-0.136688,0.099052,0.055975,-0.135595,-0.098890,-0.985817,0.000000,0.000000,0.000000,-1,-0.651570,1.223464,0.938576,0.081609,0.050001,0.118172
"2018-06-07 00:59:22.188 +0000",1528333162.188030,-0.124186,0.089947,0.063741,-0.123367,-0.089826,-0.988287,0.000000,0.000000,0.000000,-1,-0.838959,1.321034,0.845707,0.027099,0.031797,0.128073
"2018-06-07 00:59:22.198 +0000",1528333162.198104,-0.112675,0.080035,0.069460,-0.112077,-0.079950,-0.990478,0.000000,0.000000,0.000000,-1,-0.922033,1.119801,0.609746,-0.065795,0.040643,0.045822
"2018-06-07 00:59:22.208 +0000",1528333162.208179,-0.104756,0.070874,0.072372,-0.104302,-0.070814,-0.992021,0.000000,0.000000,0.000000,-1,-0.839497,0.694255,0.309290,-0.149894,0.034041,-0.105238
"2018-06-07 00:59:22.218 +0000",1528333162.218253,-0.100707,0.064102,0.072687,-0.100330,-0.064058,-0.992890,0.000000,0.000000,0.000000,-1,-0.599683,0.321719,0.037670,-0.133328,0.023485,-0.183547
"2018-06-07 00:59:22.228 +0000",1528333162.228326,-0.098885,0.059816,0.071474,-0.098548,-0.059780,-0.993335,0.000000,0.000000,0.000000,-1,-0.393624,0.134056,-0.101030,-0.068032,0.037350,-0.122861
"2018-06-07 00:59:22.238 +0000",1528333162.238400,-0.097921,0.056077,0.070215,-0.097611,-0.056048,-0.993645,0.000000,0.000000,0.000000,-1,-0.395913,0.090013,-0.071035,-0.033493,0.072069,-0.040702
"2018-06-07 00:59:22.248 +0000",1528333162.248475,-0.094362,0.050460,0.069889,-0.094102,-0.050439,-0.994284,0.000000,0.000000,0.000000,-1,-0.627312,0.498300,0.057609,0.013139,0.133798,0.036139
"2018-06-07 00:59:22.259 +0000",1528333162.258548,-0.081792,0.041157,0.071020,-0.081632,-0.041146,-0.995813,0.000000,0.000000,0.000000,-1,-1.012052,1.536038,0.244368,0.122129,0.192040,0.167261
"2018-06-07 00:59:22.269 +0000",1528333162.268622,-0.057335,0.027524,0.074340,-0.057282,-0.027520,-0.997979,0.000000,0.000000,0.000000,-1,-1.429919,2.740322,0.484394,0.199417,0.158654,0.208062
"2018-06-07 00:59:22.279 +0000",1528333162.278697,-0.021482,0.009914,0.079899,-0.021479,-0.009914,-0.999720,0.000000,0.000000,0.000000,-1,-1.817702,3.819848,0.651921,0.175578,0.108592,0.207606
"2018-06-07 00:59:22.289 +0000",1528333162.288772,0.023050,-0.010835,0.086434,0.023046,0.010835,-0.999676,0.000000,0.000000,0.000000,-1,-2.140738,4.602845,0.631274,0.102335,0.087630,0.197399
"2018-06-07 00:59:22.299 +0000",1528333162.298846,0.072105,-0.034724,0.092607,0.071999,0.034717,-0.996800,0.000000,0.000000,0.000000,-1,-2.472401,4.838771,0.433726,0.015388,0.051632,0.146993
"2018-06-07 00:59:22.309 +0000",1528333162.308919,0.117940,-0.058586,0.095892,0.117465,0.058553,-0.991349,0.000000,0.000000,0.000000,-1,-2.301500,4.493200,-0.031274,-0.201449,0.121318,-0.304244
"2018-06-07 00:59:22.319 +0000",1528333162.318994,0.165015,-0.078367,0.094724,0.163763,0.078286,-0.983389,0.000000,0.000000,0.000000,-1,-1.804509,4.710577,-0.492156,-0.170614,0.211234,-0.279963
"2018-06-07 00:59:22.329 +0000",1528333162.329067,0.206586,-0.093449,0.090942,0.204224,0.093313,-0.974467,0.000000,0.000000,0.000000,-1,-1.239355,3.858827,-0.670182,-0.017075,0.056635,-0.435186
"2018-06-07 00:59:22.339 +0000",1528333162.339141,0.229219,-0.100036,0.085561,0.226081,0.099870,-0.968976,0.000000,0.000000,0.000000,-1,-0.277483,1.758102,-0.653756,0.098642,0.033904,-0.601642
"2018-06-07 00:59:22.349 +0000",1528333162.349216,0.236925,-0.101050,0.079187,0.233518,0.100878,-0.967106,0.000000,0.000000,0.000000,-1,0.074107,0.621625,-0.614842,0.212298,0.116804,-0.241955
"2018-06-07 00:59:22.359 +0000",1528333162.359291,0.243079,-0.103021,0.076273,0.239417,0.102838,-0.965455,0.000000,0.000000,0.000000,-1,-0.205450,0.751935,-0.198623,0.279520,0.110449,0.091630
"2018-06-07 00:59:22.369 +0000",1528333162.369365,0.254185,-0.107252,0.079202,0.250012,0.107047,-0.962307,0.000000,0.000000,0.000000,-1,-0.570841,1.123229,0.286258,0.311451,0.183267,0.261166
"2018-06-07 00:59:22.379 +0000",1528333162.379438,0.266101,-0.113369,0.086398,0.261283,0.113127,-0.958610,0.000000,0.000000,0.000000,-1,-0.816893,1.097086,0.598683,0.250466,0.190813,0.157066
"2018-06-07 00:59:22.390 +0000",1528333162.389513,0.278879,-0.119655,0.096269,0.273310,0.119370,-0.954491,0.000000,0.000000,0.000000,-1,-0.865960,1.199211,0.820675,0.121801,0.133560,0.046730
"2018-06-07 00:59:22.400 +0000",1528333162.399586,0.295561,-0.125146,0.107613,0.288998,0.124820,-0.949157,0.000000,0.000000,0.000000,-1,-0.824222,1.646726,0.938051,0.034167,0.116788,-0.029480
"2018-06-07 00:59:22.410 +0000",1528333162.409660,0.317263,-0.129396,0.119035,0.309359,0.129035,-0.942150,0.000000,0.000000,0.000000,-1,-0.707099,2.120155,0.946689,-0.003024,0.113000,-0.068363
"2018-06-07 00:59:22.420 +0000",1528333162.419734,0.342504,-0.132093,0.130783,0.332921,0.131709,-0.933711,0.000000,0.000000,0.000000,-1,-0.612550,2.418603,1.044149,0.112269,0.058141,-0.036336
"2018-06-07 00:59:22.430 +0000",1528333162.429810,0.403462,-0.155151,0.149736,0.387889,0.154529,-0.908660,0.000000,0.000000,0.000000,-1,-0.718652,2.574215,1.300848,0.261434,0.000759,0.108672
"2018-06-07 00:59:22.440 +0000",1528333162.439883,0.432139,-0.157881,0.167514,0.413605,0.157226,-0.896778,0.000000,0.000000,0.000000,-1,-1.055507,2.582182,1.533982,0.282806,0.044464,0.307835
"2018-06-07 00:59:22.450 +0000",1528333162.449957,0.462722,-0.164032,0.188725,0.440393,0.163297,-0.882829,0.000000,0.000000,0.000000,-1,-1.587770,2.742823,1.617417,0.124609,0.138064,0.459001
"2018-06-07 00:59:22.460 +0000",1528333162.460032,0.495651,-0.174486,0.212347,0.468383,0.173602,-0.866302,0.000000,0.000000,0.000000,-1,-2.110506,2.920579,1.552442,-0.001128,0.221158,0.482208
"2018-06-07 00:59:22.470 +0000",1528333162.470106,0.559362,-0.204194,0.243519,0.519622,0.202778,-0.829985,0.000000,0.000000,0.000000,-1,-2.490795,3.162218,1.531427,-0.037581,0.210384,0.403624
"2018-06-07 00:59:22.480 +0000",1528333162.480180,0.599339,-0.217866,0.272571,0.550762,0.216147,-0.806189,0.000000,0.000000,0.000000,-1,-2.733564,3.433280,1.653244,0.010914,0.148294,0.341147
"2018-06-07 00:59:22.490 +0000",1528333162.490253,0.643412,-0.230707,0.304568,0.584034,0.228666,-0.778856,0.000000,0.000000,0.000000,-1,-2.864307,3.743999,1.816869,0.046703,0.083742,0.293626
"2018-06-07 00:59:22.500 +0000",1528333162.500328,0.691038,-0.241586,0.338638,0.618829,0.239243,-0.748207,0.000000,0.000000,0.000000,-1,-2.881265,3.995913,1.942416,0.028479,0.038909,0.243065
"2018-06-07 00:59:22.510 +0000",1528333162.510402,0.764731,-0.262155,0.380792,0.668688,0.259162,-0.696916,0.000000,0.000000,0.000000,-1,-2.942674,4.049819,2.136329,-0.039095,-0.042625,0.162904
"2018-06-07 00:59:22.520 +0000",1528333162.520476,0.814844,-0.265572,0.422869,0.702110,0.262461,-0.661933,0.000000,0.000000,0.000000,-1,-3.169658,3.783233,2.730905,0.036247,-0.196970,0.092719
"2018-06-07 00:59:22.531 +0000",1528333162.530550,0.858657,-0.268168,0.467931,0.729910,0.264965,-0.630099,0.000000,0.000000,0.000000,-1,-3.433879,2.950783,2.636583,0.085260,0.155048,-0.044324
"2018-06-07 00:59:22.541 +0000",1528333162.540625,0.893835,-0.272137,0.511238,0.750794,0.268790,-0.603374,0.000000,0.000000,0.000000,-1,-3.411187,2.164304,2.240557,-0.001328,0.503076,-0.131123
"2018-06-07 00:59:22.551 +0000",1528333162.550699,0.923268,-0.277601,0.550094,0.767042,0.274050,-0.580123,0.000000,0.000000,0.000000,-1,-3.150653,1.720325,1.741721,-0.144270,0.546919,-0.139161
"2018-06-07 00:59:22.561 +0000",1528333162.560772,0.948876,-0.283597,0.582989,0.780296,0.279811,-0.559325,0.000000,0.000000,0.000000,-1,-2.782444,1.632229,1.265187,-0.226859,0.455037,-0.133348
"2018-06-07 00:59:22.571 +0000",1528333162.570847,0.973049,-0.290189,0.610199,0.792045,0.286133,-0.539252,0.000000,0.000000,0.000000,-1,-2.406357,1.633932,0.845904,-0.223624,0.265625,-0.161035
"2018-06-07 00:59:22.581 +0000",1528333162.580920,0.996261,-0.297014,0.632634,0.802689,0.292667,-0.519649,0.000000,0.000000,0.000000,-1,-2.067051,1.682178,0.560222,-0.129228,0.095624,-0.128285
"2018-06-07 00:59:22.591 +0000",1528333162.590996,1.020770,-0.303021,0.652154,0.813670,0.298404,-0.498895,0.000000,0.000000,0.000000,-1,-1.804064,1.866552,0.484861,-0.052103,-0.021702,-0.026404
"2018-06-07 00:59:22.601 +0000",1528333162.601069,1.046409,-0.307947,0.671519,0.824909,0.303103,-0.477130,0.000000,0.000000,0.000000,-1,-1.863412,2.002292,0.537023,0.061001,0.035505,0.074435
"2018-06-07 00:59:22.611 +0000",1528333162.611144,1.075314,-0.312805,0.694594,0.837049,0.307728,-0.452384,0.000000,0.000000,0.000000,-1,-2.254448,2.240998,0.684900,0.231768,0.142864,0.259925
"2018-06-07 00:59:22.621 +0000",1528333162.621217,1.109278,-0.317638,0.723833,0.850587,0.312324,-0.423032,0.000000,0.000000,0.000000,-1,-2.817265,2.517354,0.903198,0.374740,0.155526,0.384305
"2018-06-07 00:59:22.631 +0000",1528333162.631291,1.145332,-0.321122,0.759909,0.864286,0.315631,-0.391645,0.000000,0.000000,0.000000,-1,-3.300877,2.344371,1.257689,0.470125,0.061535,0.136320
"2018-06-07 00:59:22.641 +0000",1528333162.641366,1.180830,-0.319951,0.799820,0.877982,0.314520,-0.360865,0.000000,0.000000,0.000000,-1,-3.405097,2.275234,1.707346,0.378548,-0.103415,-0.174124
"2018-06-07 00:59:22.651 +0000",1528333162.651440,1.217117,-0.313587,0.839028,0.892356,0.308473,-0.329461,0.000000,0.000000,0.000000,-1,-3.125907,2.437310,1.986846,0.193780,-0.172517,-0.349524
"2018-06-07 00:59:22.662 +0000",1528333162.661515,1.254113,-0.303531,0.873480,0.906833,0.298892,-0.297181,0.000000,0.000000,0.000000,-1,-2.608499,2.696635,2.007928,0.033856,-0.144656,-0.448058
"2018-06-07 00:59:22.672 +0000",1528333162.671588,1.290531,-0.291339,0.901195,0.920486,0.287235,-0.264954,0.000000,0.000000,0.000000,-1,-2.008085,2.822785,1.904734,-0.060837,-0.138156,-0.506378
"2018-06-07 00:59:22.682 +0000",1528333162.681663,1.324458,-0.277586,0.922455,0.932687,0.274035,-0.234520,0.000000,0.000000,0.000000,-1,-1.474921,2.747735,1.830151,-0.062326,-0.186587,-0.557610
"2018-06-07 00:59:22.692 +0000",1528333162.691736,1.355048,-0.262383,0.938593,0.943384,0.259382,-0.206752,0.000000,0.000000,0.000000,-1,-1.057668,2.553538,1.818950,-0.066706,-0.222014,-0.553990
"2018-06-07 00:59:22.702 +0000",1528333162.701810,1.381328,-0.246641,0.949848,0.952384,0.244148,-0.182637,0.000000,0.000000,0.000000,-1,-0.631196,2.242290,1.715957,-0.135413,-0.224770,-0.549525
"2018-06-07 00:59:22.712 +0000",1528333162.711884,1.402715,-0.231606,0.955612,0.959583,0.229540,-0.162825,0.000000,0.000000,0.000000,-1,-0.170329,1.913993,1.512801,-0.221988,-0.216235,-0.601549
"2018-06-07 00:59:22.722 +0000",1528333162.721959,1.422071,-0.218819,0.956469,0.965378,0.217077,-0.144644,0.000000,0.000000,0.000000,-1,0.194588,1.930678,1.178564,-0.292069,-0.150274,-0.550500
"2018-06-07 00:59:22.732 +0000",1528333162.732033,1.442905,-0.209154,0.955114,0.970218,0.207633,-0.124764,0.000000,0.000000,0.000000,-1,0.264098,2.160575,0.852077,-0.296756,-0.057822,-0.387016
"2018-06-07 00:59:22.742 +0000",1528333162.742107,1.466647,-0.202593,0.953644,0.974240,0.201210,-0.101834,0.000000,0.000000,0.000000,-1,0.204113,2.455845,0.557271,-0.281201,0.006401,-0.269061
"2018-06-07 00:59:22.752 +0000",1528333162.752182,1.491603,-0.198598,0.951315,0.977271,0.197295,-0.077556,0.000000,0.000000,0.000000,-1,0.302460,2.509776,0.327015,-0.257285,-0.001723,-0.286336
"2018-06-07 00:59:22.762 +0000",1528333162.762256,1.513316,-0.195857,0.946220,0.979261,0.194608,-0.056350,0.000000,0.000000,0.000000,-1,0.589377,2.145495,0.212355,-0.193220,-0.034924,-0.358872
"2018-06-07 00:59:22.772 +0000",1528333162.772329,1.529781,-0.193607,0.938411,0.980491,0.192399,-0.040237,0.000000,0.000000,0.000000,-1,0.816903,1.663216,0.186767,-0.154777,-0.078920,-0.326752
"2018-06-07 00:59:22.782 +0000",1528333162.782403,1.540978,-0.191066,0.929669,0.981365,0.189906,-0.029272,0.000000,0.000000,0.000000,-1,0.855882,1.152660,0.234673,-0.122952,-0.088023,-0.239359
"2018-06-07 00:59:22.792 +0000",1528333162.792478,1.547321,-0.188274,0.921175,0.982058,0.187164,-0.023058,0.000000,0.000000,0.000000,-1,0.816265,0.693605,0.252789,-0.156649,-0.062240,-0.226682
"2018-06-07 00:59:22.803 +0000",1528333162.802552,1.551477,-0.186566,0.913560,0.982463,0.185486,-0.018983,0.000000,0.000000,0.000000,-1,0.723073,0.530424,0.098711,-0.244731,-0.016739,-0.143111
"2018-06-07 00:59:22.813 +0000",1528333162.812626,1.556437,-0.187801,0.906812,0.982316,0.186699,-0.014106,0.000000,0.000000,0.000000,-1,0.634962,0.669779,-0.207241,-0.284638,0.048423,-0.016457
"2018-06-07 00:59:22.823 +0000",1528333162.822701,1.563428,-0.190471,0.900239,0.981888,0.189321,-0.007235,0.000000,0.000000,0.000000,-1,0.658299,0.841311,-0.258426,-0.107407,0.074809,0.045764
"2018-06-07 00:59:22.833 +0000",1528333162.832775,1.569308,-0.191735,0.891859,0.981674,0.190563,-0.001461,0.000000,0.000000,0.000000,-1,0.871289,0.681946,-0.072215,0.099137,0.063374,-0.109349
"2018-06-07 00:59:22.843 +0000",1528333162.842849,1.572203,-0.191021,0.881677,0.981810,0.189861,0.001381,0.000000,0.000000,0.000000,-1,1.020359,0.425832,0.106331,0.147478,0.111790,-0.128670
"2018-06-07 00:59:22.853 +0000",1528333162.852922,1.574667,-0.190636,0.871154,0.981876,0.189484,0.003801,0.000000,0.000000,0.000000,-1,1.008585,0.480071,-0.008578,-0.027622,0.091049,-0.007585
"2018-06-07 00:59:22.863 +0000",1528333162.862997,1.579770,-0.194323,0.862738,0.981139,0.193103,0.008805,0.000000,0.000000,0.000000,-1,0.742265,0.716348,-0.508532,-0.026885,0.087430,-0.012589
"2018-06-07 00:59:22.873 +0000",1528333162.873070,1.586166,-0.204985,0.857604,0.978948,0.203552,0.015047,0.000000,0.000000,0.000000,-1,0.454783,0.716386,-1.232858,-0.501287,0.146958,0.124433
"2018-06-07 00:59:22.883 +0000",1528333162.883144,1.591979,-0.220478,0.853199,0.975574,0.218697,0.020668,0.000000,0.000000,0.000000,-1,0.479415,0.643172,-1.559048,-0.497913,0.131813,0.118813
"2018-06-07 00:59:22.893 +0000",1528333162.893219,1.594309,-0.234148,0.847263,0.972443,0.232015,0.022869,0.000000,0.000000,0.000000,-1,0.642278,0.244914,-1.244340,0.171661,0.160609,-0.319530
"2018-06-07 00:59:22.903 +0000",1528333162.903294,1.591985,-0.244592,0.840220,0.970018,0.242160,0.020556,0.000000,0.000000,0.000000,-1,0.710040,-0.137971,-0.993908,0.397108,0.171429,-0.164706
"2018-06-07 00:59:22.913 +0000",1528333162.913368,1.589958,-0.256676,0.833829,0.967061,0.253867,0.018533,0.000000,0.000000,0.000000,-1,0.598710,0.056176,-1.292117,0.077510,0.202798,0.026358
"2018-06-07 00:59:22.923 +0000",1528333162.923441,1.595215,-0.274873,0.830260,0.962173,0.271425,0.023500,0.000000,0.000000,0.000000,-1,0.291340,0.813477,-1.981926,-0.255797,0.453276,0.169264
"2018-06-07 00:59:22.934 +0000",1528333162.933516,1.608650,-0.300395,0.830391,0.954535,0.295897,0.036150,0.000000,0.000000,0.000000,-1,0.008450,1.467779,-2.701132,-0.367148,0.461900,0.180738
"2018-06-07 00:59:22.944 +0000",1528333162.943589,1.625480,-0.330756,0.831964,0.944383,0.324758,0.051694,0.000000,0.000000,0.000000,-1,0.007067,1.636260,-3.088947,-0.277055,0.198771,-0.110441
"2018-06-07 00:59:22.954 +0000",1528333162.953663,1.639568,-0.363621,0.832038,0.932405,0.355661,0.064224,0.000000,0.000000,0.000000,-1,0.289667,1.279068,-3.326200,-0.252413,-0.036859,-0.388825
"2018-06-07 00:59:22.964 +0000",1528333162.963738,1.646699,-0.402387,0.827027,0.917479,0.391616,0.069773,0.000000,0.000000,0.000000,-1,0.908734,0.800614,-4.005589,-0.543196,-0.119903,-0.584757
"2018-06-07 00:59:22.974 +0000",1528333162.973813,1.650928,-0.449408,0.813810,0.897814,0.434432,0.072097,0.000000,0.000000,0.000000,-1,1.776969,1.076970,-4.672598,-0.727480,-0.013167,-0.678344
"2018-06-07 00:59:22.984 +0000",1528333162.983886,1.653924,-0.495754,0.792647,0.876573,0.475695,0.073036,0.000000,0.000000,0.000000,-1,2.347506,1.254851,-4.310925,-0.038209,0.251646,-0.413902
"2018-06-07 00:59:22.994 +0000",1528333162.993960,1.650317,-0.536835,0.769133,0.856616,0.511418,0.068263,0.000000,0.000000,0.000000,-1,2.291052,0.578166,-3.714705,0.518552,0.244609,0.223790
"2018-06-07 00:59:23.004 +0000",1528333163.004035,1.643663,-0.570575,0.748361,0.839357,0.540116,0.061270,0.000000,0.000000,0.000000,-1,1.945284,0.484735,-3.129034,0.772703,0.004608,0.645700
"2018-06-07 00:59:23.014 +0000",1528333163.014109,1.637588,-0.596993,0.733905,0.825185,0.562158,0.055198,0.000000,0.000000,0.000000,-1,1.177683,0.075079,-2.283011,0.729914,0.152762,0.761605
"2018-06-07 00:59:23.024 +0000",1528333163.024182,1.630978,-0.616667,0.724869,0.814334,0.578319,0.049067,0.000000,0.000000,0.000000,-1,0.814415,-0.164812,-1.862300,0.580259,0.159413,0.733373
"2018-06-07 00:59:23.034 +0000",1528333163.034256,1.624971,-0.637116,0.716207,0.802635,0.594880,0.043525,0.000000,0.000000,0.000000,-1,0.822955,-0.069682,-2.028768,-0.042320,-0.099290,0.113762
"2018-06-07 00:59:23.044 +0000",1528333163.044332,1.616261,-0.657867,0.705581,0.790480,0.611431,0.035964,0.000000,0.000000,0.000000,-1,0.990950,-0.320767,-1.990084,0.008134,-0.054393,-0.208663
"2018-06-07 00:59:23.054 +0000",1528333163.054405,1.600964,-0.677564,0.692370,0.778747,0.626897,0.023500,0.000000,0.000000,0.000000,-1,1.134611,-0.833420,-1.896172,0.064072,-0.158193,-0.221453
"2018-06-07 00:59:23.064 +0000",1528333163.064479,1.581997,-0.697068,0.677947,0.766679,0.641973,0.008588,0.000000,0.000000,0.000000,-1,1.138176,-0.979263,-1.932100,-0.038072,-0.178350,-0.113080
"2018-06-07 00:59:23.075 +0000",1528333163.074553,1.562802,-0.717747,0.663198,0.753265,0.657689,-0.006022,0.000000,0.000000,0.000000,-1,1.107908,-0.957801,-2.096542,-0.133499,-0.132894,-0.088918
"2018-06-07 00:59:23.085 +0000",1528333163.084628,1.542635,-0.738975,0.648952,0.738866,0.673531,-0.020813,0.000000,0.000000,0.000000,-1,0.981999,-1.104159,-2.095604,-0.142293,-0.099159,-0.112060
"2018-06-07 00:59:23.095 +0000",1528333163.094702,1.520803,-0.756874,0.635809,0.726078,0.686652,-0.036329,0.000000,0.000000,0.000000,-1,0.859603,-1.362961,-1.717450,-0.122745,0.030862,-0.086275
"2018-06-07 00:59:23.105 +0000",1528333163.104775,1.495699,-0.771770,0.622590,0.714657,0.697405,-0.053770,0.000000,0.000000,0.000000,-1,0.870796,-1.585564,-1.506221,-0.120785,-0.039339,-0.082155
"2018-06-07 00:59:23.115 +0000",1528333163.114850,1.470962,-0.786017,0.608511,0.703150,0.707545,-0.070433,0.000000,0.000000,0.000000,-1,0.852632,-1.395770,-1.489492,-0.028681,-0.100092,-0.034075
"2018-06-07 00:59:23.125 +0000",1528333163.124924,1.452674,-0.799846,0.596304,0.691961,0.717249,-0.082119,0.000000,0.000000,0.000000,-1,0.631067,-0.792842,-1.434525,-0.016165,0.061422,0.074077
"2018-06-07 00:59:23.135 +0000",1528333163.134998,1.439901,-0.812623,0.587302,0.681714,0.726093,-0.089746,0.000000,0.000000,0.000000,-1,0.399777,-0.615147,-1.291493,-0.049497,0.137600,0.012201
"2018-06-07 00:59:23.145 +0000",1528333163.145072,1.430130,-0.823583,0.581442,0.672884,0.733586,-0.095281,0.000000,0.000000,0.000000,-1,0.200578,-0.506814,-1.078819,-0.080126,0.239894,-0.130366
"2018-06-07 00:59:23.155 +0000",1528333163.155146,1.423214,-0.832404,0.577381,0.665783,0.739552,-0.098978,0.000000,0.000000,0.000000,-1,0.140876,-0.353170,-0.845896,-0.033107,0.329387,-0.187857
"2018-06-07 00:59:23.165 +0000",1528333163.165220,1.419497,-0.838526,0.574548,0.660922,0.743659,-0.100767,0.000000,0.000000,0.000000,-1,0.074247,-0.075773,-0.546983,0.099210,0.356622,-0.089433
"2018-06-07 00:59:23.175 +0000",1528333163.175294,1.421196,-0.841219,0.573752,0.659109,0.745456,-0.099345,0.000000,0.000000,0.000000,-1,0.002761,0.331955,-0.178838,0.182352,0.341946,0.032863
"2018-06-07 00:59:23.185 +0000",1528333163.185368,1.426736,-0.840487,0.572644,0.660189,0.744968,-0.095770,0.000000,0.000000,0.000000,-1,0.121821,0.729467,0.133982,0.181272,0.342434,0.029288
"2018-06-07 00:59:23.195 +0000",1528333163.195443,1.434236,-0.836953,0.569626,0.663493,0.742606,-0.091174,0.000000,0.000000,0.000000,-1,0.286706,1.034108,0.372208,0.086629,0.217569,-0.066724
"2018-06-07 00:59:23.206 +0000",1528333163.205517,1.442001,-0.832367,0.564940,0.667551,0.739527,-0.086456,0.000000,0.000000,0.000000,-1,0.388311,1.126500,0.396984,-0.040674,0.076650,-0.062408
"2018-06-07 00:59:23.216 +0000",1528333163.215591,1.448341,-0.829336,0.560346,0.670308,0.737483,-0.082495,0.000000,0.000000,0.000000,-1,0.322812,0.873541,0.203858,-0.156681,0.006169,0.006262
"2018-06-07 00:59:23.226 +0000",1528333163.225665,1.450365,-0.828791,0.556517,0.670873,0.737115,-0.081187,0.000000,0.000000,0.000000,-1,0.236888,0.387995,-0.036151,-0.193501,0.018272,-0.011876
"2018-06-07 00:59:23.236 +0000",1528333163.235739,1.452055,-0.830557,0.554802,0.669715,0.738307,-0.079899,0.000000,0.000000,0.000000,-1,0.031530,0.285030,-0.226369,-0.155128,0.058294,-0.023571
"2018-06-07 00:59:23.246 +0000",1528333163.245813,1.456342,-0.834319,0.557481,0.667287,0.740839,-0.076709,0.000000,0.000000,0.000000,-1,-0.311596,0.180489,-0.393688,-0.053320,-0.053538,0.007144
"2018-06-07 00:59:23.256 +0000",1528333163.255887,1.458905,-0.840651,0.564452,0.662807,0.745077,-0.074473,0.000000,0.000000,0.000000,-1,-0.591354,-0.495348,-0.672530,-0.033244,-0.047232,-0.101705
"2018-06-07 00:59:23.266 +0000",1528333163.265962,1.456119,-0.850396,0.575603,0.655352,0.751542,-0.075485,0.000000,0.000000,0.000000,-1,-0.951038,-1.256035,-0.927771,-0.102038,0.064758,-0.224380
"2018-06-07 00:59:23.276 +0000",1528333163.276036,1.451165,-0.862371,0.592786,0.645988,0.759388,-0.077651,0.000000,0.000000,0.000000,-1,-1.335723,-1.983202,-1.077445,-0.151435,0.290768,-0.258210
"2018-06-07 00:59:23.286 +0000",1528333163.286110,1.438403,-0.875658,0.613207,0.634886,0.767965,-0.084549,0.000000,0.000000,0.000000,-1,-1.487275,-3.199602,-1.161309,-0.249266,0.304255,-0.450867
"2018-06-07 00:59:23.296 +0000",1528333163.296184,1.415275,-0.890592,0.632563,0.621360,0.777444,-0.097422,0.000000,0.000000,0.000000,-1,-1.385408,-3.839612,-1.353794,-0.397773,0.254218,-0.441976
"2018-06-07 00:59:23.306 +0000",1528333163.306258,1.388768,-0.907928,0.648583,0.605213,0.788230,-0.111399,0.000000,0.000000,0.000000,-1,-1.238684,-3.915118,-1.575932,-0.228061,0.228616,-0.076803
"2018-06-07 00:59:23.316 +0000",1528333163.316332,1.363724,-0.926318,0.666935,0.587946,0.799413,-0.123518,0.000000,0.000000,0.000000,-1,-1.572925,-3.893110,-1.548212,0.124105,0.094279,0.074659
"2018-06-07 00:59:23.326 +0000",1528333163.326406,1.350701,-0.945096,0.699444,0.571536,0.810553,-0.127864,0.000000,0.000000,0.000000,-1,-2.504021,-3.862496,-1.350223,0.180783,-0.202994,0.256922
"2018-06-07 00:59:23.336 +0000",1528333163.336481,1.364771,-0.958597,0.746959,0.562515,0.818386,-0.117560,0.000000,0.000000,0.000000,-1,-3.048436,-1.798411,-0.466321,0.276825,-0.719051,0.679099
"2018-06-07 00:59:23.347 +0000",1528333163.346555,1.399778,-0.964355,0.798314,0.561632,0.821682,-0.096997,0.000000,0.000000,0.000000,-1,-2.911784,-0.572894,0.052165,0.555235,-0.684871,0.435711
"2018-06-07 00:59:23.357 +0000",1528333163.356629,1.434376,-0.969780,0.844647,0.560227,0.824761,-0.076904,0.000000,0.000000,0.000000,-1,-2.564410,-0.179930,-0.232533,0.556640,-0.687951,0.415618
"2018-06-07 00:59:23.367 +0000",1528333163.366703,1.472543,-0.978695,0.882142,0.555413,0.829770,-0.054747,0.000000,0.000000,0.000000,-1,-2.041569,1.027998,-0.762661,-0.078484,0.122195,-0.038423
"2018-06-07 00:59:23.377 +0000",1528333163.376777,1.513698,-0.991385,0.909442,0.546639,0.836785,-0.031246,0.000000,0.000000,0.000000,-1,-1.442138,2.061457,-1.260127,-0.045342,0.099906,-0.104389
"2018-06-07 00:59:23.387 +0000",1528333163.386851,1.554560,-1.008406,0.928457,0.533138,0.845983,-0.008657,0.000000,0.000000,0.000000,-1,-0.975381,2.555655,-1.784673,-0.035900,0.075678,-0.185633
"2018-06-07 00:59:23.397 +0000",1528333163.396925,1.592714,-1.029284,0.941907,0.515307,0.856930,0.011296,0.000000,0.000000,0.000000,-1,-0.596906,2.645914,-2.115500,-0.060641,0.006610,-0.172185
"2018-06-07 00:59:23.407 +0000",1528333163.406999,1.615333,-1.040017,0.944661,0.505702,0.862413,0.022537,0.000000,0.000000,0.000000,-1,0.075864,1.718081,-0.568660,0.005650,-0.105180,-0.215195
"2018-06-07 00:59:23.417 +0000",1528333163.417074,1.614829,-1.035862,0.933775,0.509289,0.860302,0.022440,0.000000,0.000000,0.000000,-1,0.641385,0.671887,0.597304,0.027210,0.042927,-0.199488
"2018-06-07 00:59:23.427 +0000",1528333163.427148,1.608889,-1.031449,0.920875,0.513202,0.858044,0.019559,0.000000,0.000000,0.000000,-1,0.579104,0.512333,0.384004,-0.049060,0.124058,0.054675
"2018-06-07 00:59:23.437 +0000",1528333163.437222,1.608484,-1.027610,0.914132,0.516498,0.856066,0.019475,0.000000,0.000000,0.000000,-1,0.261404,0.508981,0.449261,0.109631,0.022443,0.095012
"2018-06-07 00:59:23.447 +0000",1528333163.447296,1.608411,-1.021533,0.910328,0.521689,0.852909,0.019632,0.000000,0.000000,0.000000,-1,0.153170,0.244478,0.625145,0.136759,-0.093510,-0.046289
"2018-06-07 00:59:23.457 +0000",1528333163.457370,1.607681,-1.017029,0.908658,0.525537,0.850549,0.019393,0.000000,0.000000,0.000000,-1,0.042908,0.020171,0.376271,-0.063729,-0.091195,-0.076735
"2018-06-07 00:59:23.467 +0000",1528333163.467444,1.608062,-1.015629,0.910474,0.526718,0.849812,0.019638,0.000000,0.000000,0.000000,-1,-0.159240,-0.170047,0.052412,-0.177459,-0.052617,-0.026779
"2018-06-07 00:59:23.478 +0000",1528333163.477518,1.610944,-1.017174,0.918126,0.525347,0.850625,0.021103,0.000000,0.000000,0.000000,-1,-0.484520,-0.426641,-0.231560,-0.196795,-0.065805,0.001801
"2018-06-07 00:59:23.488 +0000",1528333163.487593,1.618905,-1.020448,0.934646,0.522377,0.852342,0.025150,0.000000,0.000000,0.000000,-1,-0.974533,-0.647927,-0.405336,-0.160958,-0.104616,0.038158
"2018-06-07 00:59:23.498 +0000",1528333163.497667,1.634790,-1.024796,0.961074,0.518208,0.854608,0.033207,0.000000,0.000000,0.000000,-1,-1.454595,-0.639934,-0.535442,-0.104115,-0.114405,0.086162
"2018-06-07 00:59:23.508 +0000",1528333163.507741,1.660138,-1.029356,0.994197,0.513314,0.856967,0.045983,0.000000,0.000000,0.000000,-1,-1.704642,-0.132135,-0.589326,-0.061745,-0.032214,0.112800
"2018-06-07 00:59:23.518 +0000",1528333163.517815,1.695588,-1.033601,1.029819,0.507747,0.859148,0.063694,0.000000,0.000000,0.000000,-1,-1.778693,0.682339,-0.621208,-0.048503,-0.031450,0.089642
"2018-06-07 00:59:23.528 +0000",1528333163.527889,1.738242,-1.037139,1.067286,0.501569,0.860952,0.084779,0.000000,0.000000,0.000000,-1,-1.841113,1.111370,-0.615514,-0.014753,-0.071035,0.022933
"2018-06-07 00:59:23.538 +0000",1528333163.537963,1.780216,-1.038917,1.104326,0.496072,0.861856,0.105433,0.000000,0.000000,0.000000,-1,-1.777852,0.925485,-0.487122,0.038962,-0.022729,-0.021189
"2018-06-07 00:59:23.548 +0000",1528333163.548037,1.814293,-1.038558,1.137477,0.492492,0.861673,0.122348,0.000000,0.000000,0.000000,-1,-1.565701,0.385110,-0.281581,0.058564,-0.056436,-0.028003
"2018-06-07 00:59:23.558 +0000",1528333163.558111,1.836916,-1.036096,1.163046,0.491644,0.860421,0.134015,0.000000,0.000000,0.000000,-1,-1.220653,0.027158,-0.033863,0.063792,-0.107370,-0.123563
"2018-06-07 00:59:23.568 +0000",1528333163.568186,1.852231,-1.033253,1.178236,0.491881,0.858969,0.142207,0.000000,0.000000,0.000000,-1,-0.649510,0.311414,0.099036,0.044298,-0.107260,-0.126597
"2018-06-07 00:59:23.578 +0000",1528333163.578260,1.859481,-1.030141,1.178759,0.493397,0.857372,0.146529,0.000000,0.000000,0.000000,-1,0.061152,0.805173,0.365605,0.095119,-0.093166,-0.130797
"2018-06-07 00:59:23.588 +0000",1528333163.588334,1.860946,-1.025901,1.165795,0.496661,0.855181,0.148291,0.000000,0.000000,0.000000,-1,0.648609,1.401659,0.660722,0.131284,-0.063571,-0.043143
"2018-06-07 00:59:23.598 +0000",1528333163.598408,1.861526,-1.020234,1.145125,0.501209,0.852231,0.149966,0.000000,0.000000,0.000000,-1,0.896214,1.920567,0.905836,0.142574,0.051593,0.064726
"2018-06-07 00:59:23.608 +0000",1528333163.608482,1.863914,-1.011984,1.125106,0.507564,0.847885,0.153189,0.000000,0.000000,0.000000,-1,0.680287,1.846571,1.130925,0.139317,-0.052063,0.066324
"2018-06-07 00:59:23.619 +0000",1528333163.618556,1.866367,-1.003073,1.113352,0.514395,0.843127,0.156628,0.000000,0.000000,0.000000,-1,0.237131,0.999712,0.950919,-0.031821,0.061368,-0.148556
"2018-06-07 00:59:23.629 +0000",1528333163.628630,1.867098,-0.996614,1.109442,0.519477,0.839637,0.158590,0.000000,0.000000,0.000000,-1,-0.058687,0.227583,0.586858,-0.250938,0.252145,-0.256033
"2018-06-07 00:59:23.639 +0000",1528333163.638705,1.868263,-0.993094,1.112508,0.522115,0.837720,0.160061,0.000000,0.000000,0.000000,-1,-0.329221,-0.239096,0.175224,-0.316793,0.104282,-0.137219
"2018-06-07 00:59:23.649 +0000",1528333163.648779,1.872383,-0.992977,1.122293,0.521546,0.837655,0.162240,0.000000,0.000000,0.000000,-1,-0.565224,-0.452033,-0.250811,-0.254334,0.142737,0.005790
"2018-06-07 00:59:23.659 +0000",1528333163.658853,1.879076,-0.995441,1.136210,0.518479,0.838999,0.165100,0.000000,0.000000,0.000000,-1,-0.649365,-0.491822,-0.504586,-0.114228,0.118566,0.063843
"2018-06-07 00:59:23.669 +0000",1528333163.668927,1.885951,-0.998616,1.148843,0.514796,0.840723,0.167834,0.000000,0.000000,0.000000,-1,-0.507888,-0.314769,-0.485034,0.076924,-0.021677,0.011304
"2018-06-07 00:59:23.679 +0000",1528333163.679001,1.891881,-1.000996,1.156993,0.511892,0.842008,0.170252,0.000000,0.000000,0.000000,-1,-0.278342,-0.021708,-0.322284,0.178141,-0.107008,-0.054438
"2018-06-07 00:59:23.689 +0000",1528333163.689075,1.894977,-1.002815,1.158445,0.509909,0.842989,0.171348,0.000000,0.000000,0.000000,-1,0.091913,0.268430,-0.154488,0.148797,-0.064165,-0.105430
"2018-06-07 00:59:23.699 +0000",1528333163.699149,1.893941,-1.004668,1.149146,0.508605,0.843984,0.170323,0.000000,0.000000,0.000000,-1,0.673889,0.826908,0.038345,0.126008,-0.051031,-0.031117
"2018-06-07 00:59:23.709 +0000",1528333163.709224,1.890339,-1.005993,1.131187,0.508152,0.844694,0.168138,0.000000,0.000000,0.000000,-1,1.002067,1.208056,0.203276,0.024288,-0.070951,0.043547
"2018-06-07 00:59:23.719 +0000",1528333163.719298,1.886541,-1.007862,1.113193,0.507286,0.845693,0.165717,0.000000,0.000000,0.000000,-1,0.929680,1.082166,0.070771,-0.172676,0.119380,-0.002341
"2018-06-07 00:59:23.729 +0000",1528333163.729372,1.883598,-1.011151,1.099891,0.505123,0.847443,0.163366,0.000000,0.000000,0.000000,-1,0.711089,0.732268,-0.143800,-0.289134,0.266723,-0.011801
"2018-06-07 00:59:23.739 +0000",1528333163.739446,1.881122,-1.015312,1.090599,0.502163,0.849645,0.161037,0.000000,0.000000,0.000000,-1,0.574667,0.509566,-0.268910,-0.286174,0.264521,-0.009471
"2018-06-07 00:59:23.750 +0000",1528333163.749520,1.878978,-1.020087,1.081737,0.498636,0.852153,0.158727,0.000000,0.000000,0.000000,-1,0.582400,0.526270,-0.320510,-0.211984,0.287938,-0.017721
"2018-06-07 00:59:23.760 +0000",1528333163.759594,1.875801,-1.024800,1.074111,0.495301,0.854610,0.155935,0.000000,0.000000,0.000000,-1,0.485074,0.251608,-0.332918,-0.219834,0.230808,-0.106695
"2018-06-07 00:59:23.770 +0000",1528333163.769668,1.872396,-1.029681,1.068624,0.491840,0.857135,0.153006,0.000000,0.000000,0.000000,-1,0.401690,0.115533,-0.399813,-0.221027,0.237912,-0.096274
"2018-06-07 00:59:23.780 +0000",1528333163.779742,1.870226,-1.035111,1.063864,0.487716,0.859919,0.150564,0.000000,0.000000,0.000000,-1,0.387245,0.222173,-0.446798,-0.102279,0.183477,-0.026266
"2018-06-07 00:59:23.790 +0000",1528333163.789817,1.869408,-1.039974,1.059868,0.483837,0.862391,0.148932,0.000000,0.000000,0.000000,-1,0.312180,0.250254,-0.386309,-0.012981,0.060323,0.001260
"2018-06-07 00:59:23.800 +0000",1528333163.799891,1.868139,-1.044004,1.057307,0.480699,0.864424,0.147299,0.000000,0.000000,0.000000,-1,0.216403,0.025819,-0.332960,-0.026918,-0.020003,-0.094321
"2018-06-07 00:59:23.810 +0000",1528333163.809965,1.865081,-1.047284,1.055522,0.478431,0.866068,0.145006,0.000000,0.000000,0.000000,-1,0.170925,-0.196344,-0.264661,-0.014686,-0.064982,-0.113069
"2018-06-07 00:59:23.820 +0000",1528333163.820039,1.860686,-1.049637,1.053425,0.477109,0.867243,0.142318,0.000000,0.000000,0.000000,-1,0.174523,-0.272448,-0.176687,-0.013685,-0.133478,-0.044494
"2018-06-07 00:59:23.830 +0000",1528333163.830113,1.854359,-1.052013,1.049735,0.476020,0.868423,0.138720,0.000000,0.000000,0.000000,-1,0.272267,-0.327059,-0.178146,-0.037147,-0.159591,-0.063845
"2018-06-07 00:59:23.840 +0000",1528333163.840187,1.844087,-1.054829,1.043555,0.475064,0.869816,0.133162,0.000000,0.000000,0.000000,-1,0.397522,-0.547332,-0.185527,0.026920,-0.227054,-0.162551
"2018-06-07 00:59:23.850 +0000",1528333163.850261,1.828988,-1.058059,1.034117,0.474302,0.871405,0.125256,0.000000,0.000000,0.000000,-1,0.575119,-0.688474,-0.179891,0.126605,-0.276617,-0.230451
"2018-06-07 00:59:23.860 +0000",1528333163.860336,1.816094,-1.061538,1.022744,0.472933,0.873106,0.118393,0.000000,0.000000,0.000000,-1,0.608859,-0.181976,-0.259168,0.201246,-0.243254,0.058746
"2018-06-07 00:59:23.870 +0000",1528333163.870410,1.809347,-1.066894,1.016640,0.469170,0.875705,0.114093,0.000000,0.000000,0.000000,-1,0.331079,-0.152215,-0.472499,0.256263,-0.015399,0.215191
"2018-06-07 00:59:23.880 +0000",1528333163.880484,1.806359,-1.071891,1.018109,0.465249,0.878107,0.111668,0.000000,0.000000,0.000000,-1,-0.041084,-0.537284,-0.516868,0.279747,-0.093073,0.059688
"2018-06-07 00:59:23.891 +0000",1528333163.890558,1.804668,-1.078695,1.026727,0.459614,0.881342,0.109494,0.000000,0.000000,0.000000,-1,-0.304371,-1.124817,-0.899828,-0.027149,-0.078272,-0.060544
"2018-06-07 00:59:23.901 +0000",1528333163.900632,1.804614,-1.086292,1.041969,0.453092,0.884906,0.107915,0.000000,0.000000,0.000000,-1,-0.590975,-1.305667,-0.895395,-0.245909,0.346799,-0.044164
"2018-06-07 00:59:23.911 +0000",1528333163.910706,1.815120,-1.091939,1.068010,0.447078,0.887522,0.111459,0.000000,0.000000,0.000000,-1,-1.209565,-1.229947,-0.775437,-0.092631,0.205114,0.167609
"2018-06-07 00:59:23.921 +0000",1528333163.920780,1.836971,-1.093377,1.107603,0.443304,0.888184,0.120864,0.000000,0.000000,0.000000,-1,-1.864546,-1.365580,-0.540917,-0.110998,0.200714,0.135484
"2018-06-07 00:59:23.931 +0000",1528333163.930855,1.860396,-1.091394,1.154963,0.442038,0.887271,0.131717,0.000000,0.000000,0.000000,-1,-2.215009,-2.053399,-0.364634,-0.247458,0.155225,-0.079502
"2018-06-07 00:59:23.941 +0000",1528333163.940929,1.877572,-1.087362,1.204315,0.443117,0.885404,0.140369,0.000000,0.000000,0.000000,-1,-2.263435,-2.782892,-0.260156,-0.420260,0.153140,-0.246113
"2018-06-07 00:59:23.951 +0000",1528333163.951003,1.885809,-1.082693,1.247555,0.445872,0.883224,0.145293,0.000000,0.000000,0.000000,-1,-1.911064,-2.908516,-0.174201,-0.314342,0.009919,-0.135711
"2018-06-07 00:59:23.961 +0000",1528333163.961077,1.888334,-1.080762,1.275287,0.447123,0.882317,0.146951,0.000000,0.000000,0.000000,-1,-1.084893,-1.891595,-0.241976,0.091466,-0.040138,0.116080
"2018-06-07 00:59:23.971 +0000",1528333163.971151,1.891017,-1.080947,1.289265,0.446572,0.882404,0.148099,0.000000,0.000000,0.000000,-1,-0.487571,-0.683605,-0.212939,0.424155,-0.130863,0.075778
"2018-06-07 00:59:23.981 +0000",1528333163.981225,1.894328,-1.081683,1.298197,0.445463,0.882750,0.149370,0.000000,0.000000,0.000000,-1,-0.365071,-0.458318,-0.189976,0.361590,-0.035033,-0.017153
"2018-06-07 00:59:23.991 +0000",1528333163.991299,1.895774,-1.082331,1.307062,0.444705,0.883054,0.149831,0.000000,0.000000,0.000000,-1,-0.387791,-0.714087,-0.208958,0.059095,-0.053235,-0.036703
"2018-06-07 00:59:24.001 +0000",1528333164.001374,1.897298,-1.083233,1.320454,0.443721,0.883477,0.150253,0.000000,0.000000,0.000000,-1,-0.616627,-1.107281,-0.314991,-0.126247,0.016624,0.041641
"2018-06-07 00:59:24.011 +0000",1528333164.011448,1.900283,-1.084574,1.334354,0.442150,0.884104,0.151194,0.000000,0.000000,0.000000,-1,-0.522313,-0.814978,-0.322962,-0.060466,0.058523,0.154257
"2018-06-07 00:59:24.022 +0000",1528333164.021522,1.902953,-1.085914,1.342665,0.440624,0.884730,0.151987,0.000000,0.000000,0.000000,-1,-0.251306,-0.344697,-0.246920,0.059147,0.033453,0.056311
"2018-06-07 00:59:24.032 +0000",1528333164.031596,1.906011,-1.088016,1.346840,0.438399,0.885708,0.152722,0.000000,0.000000,0.000000,-1,-0.064681,0.029074,-0.249487,-0.072935,0.041996,-0.087704
"2018-06-07 00:59:24.042 +0000",1528333164.041670,1.907994,-1.090581,1.345653,0.435950,0.886895,0.152838,0.000000,0.000000,0.000000,-1,0.202639,0.377710,-0.225420,-0.198768,-0.142541,-0.164466
"2018-06-07 00:59:24.052 +0000",1528333164.051744,1.909234,-1.094945,1.341752,0.432106,0.888903,0.152093,0.000000,0.000000,0.000000,-1,0.328861,0.489665,-0.399638,-0.216056,-0.103350,-0.196465
"2018-06-07 00:59:24.062 +0000",1528333164.061818,1.912801,-1.101103,1.338100,0.426395,0.891707,0.151794,0.000000,0.000000,0.000000,-1,0.382301,0.764903,-0.553853,-0.155170,-0.092727,-0.083175
"2018-06-07 00:59:24.072 +0000",1528333164.071892,1.917215,-1.108491,1.332157,0.419513,0.895027,0.151434,0.000000,0.000000,0.000000,-1,0.533702,1.001550,-0.602991,-0.093112,-0.104850,-0.094625
"2018-06-07 00:59:24.082 +0000",1528333164.081967,1.919820,-1.116259,1.324868,0.412571,0.898464,0.150144,0.000000,0.000000,0.000000,-1,0.558194,0.844738,-0.627167,-0.205631,-0.046169,-0.205655
"2018-06-07 00:59:24.092 +0000",1528333164.092041,1.924614,-1.124577,1.321813,0.404822,0.902085,0.149526,0.000000,0.000000,0.000000,-1,0.305196,0.667848,-0.759407,-0.311545,-0.100693,-0.157613
"2018-06-07 00:59:24.102 +0000",1528333164.102116,1.937466,-1.131438,1.332412,0.397079,0.905025,0.152493,0.000000,0.000000,0.000000,-1,-0.344164,0.226043,-0.808685,-0.276626,-0.055644,0.021686
"2018-06-07 00:59:24.112 +0000",1528333164.112190,1.957678,-1.137409,1.355928,0.388905,0.907548,0.158445,0.000000,0.000000,0.000000,-1,-0.773264,-0.225729,-0.953153,-0.268452,-0.058168,0.015734
"2018-06-07 00:59:24.122 +0000",1528333164.122264,1.975240,-1.143707,1.381723,0.380800,0.910175,0.162998,0.000000,0.000000,0.000000,-1,-0.722090,-0.673296,-0.996522,-0.077882,0.204708,0.131588
"2018-06-07 00:59:24.132 +0000",1528333164.132338,1.988494,-1.150051,1.404045,0.373320,0.912785,0.165685,0.000000,0.000000,0.000000,-1,-0.524279,-0.669834,-0.905535,0.132951,0.058391,0.128749
"2018-06-07 00:59:24.142 +0000",1528333164.142412,1.998143,-1.155715,1.419107,0.366993,0.915084,0.167134,0.000000,0.000000,0.000000,-1,-0.264503,-0.385601,-0.711687,0.132701,0.097566,0.099819
"2018-06-07 00:59:24.152 +0000",1528333164.152487,2.000951,-1.162995,1.421941,0.360458,0.917995,0.165381,0.000000,0.000000,0.000000,-1,0.379983,0.236525,-0.733942,0.007096,-0.098155,-0.051810
"2018-06-07 00:59:24.163 +0000",1528333164.162561,1.994679,-1.177176,1.403964,0.349587,0.923526,0.157747,0.000000,0.000000,0.000000,-1,1.492826,1.208122,-1.060660,0.075813,0.116055,0.019988
"2018-06-07 00:59:24.173 +0000",1528333164.172635,1.973585,-1.193233,1.367548,0.339148,0.929566,0.144505,0.000000,0.000000,0.000000,-1,1.905585,1.165276,-0.778835,0.090463,0.033554,-0.123296
"2018-06-07 00:59:24.183 +0000",1528333164.182709,1.948841,-1.207815,1.330843,0.329984,0.934843,0.131052,0.000000,0.000000,0.000000,-1,1.693857,0.784902,-0.789138,-0.206785,0.041583,-0.210246
"2018-06-07 00:59:24.193 +0000",1528333164.192783,1.923455,-1.220599,1.298306,0.321961,0.939305,0.118496,0.000000,0.000000,0.000000,-1,1.492677,0.401287,-0.804852,-0.317628,0.108317,-0.120068
"2018-06-07 00:59:24.203 +0000",1528333164.202857,1.898148,-1.233840,1.271338,0.313052,0.943765,0.106302,0.000000,0.000000,0.000000,-1,1.206532,-0.135698,-0.953122,-0.250994,0.214499,-0.023005
"2018-06-07 00:59:24.213 +0000",1528333164.212931,1.873479,-1.246412,1.251989,0.304228,0.947847,0.095004,0.000000,0.000000,0.000000,-1,0.898890,-0.796025,-1.022104,-0.228545,0.232115,-0.012408
"2018-06-07 00:59:24.223 +0000",1528333164.223006,1.851560,-1.259970,1.242424,0.293862,0.952081,0.084744,0.000000,0.000000,0.000000,-1,0.606275,-1.424807,-1.273888,-0.158501,0.217047,-0.016827
"2018-06-07 00:59:24.233 +0000",1528333164.233080,1.829602,-1.274963,1.238213,0.281818,0.956560,0.074609,0.000000,0.000000,0.000000,-1,0.498677,-1.878925,-1.430931,0.043575,0.066344,0.055411
"2018-06-07 00:59:24.243 +0000",1528333164.243154,1.814920,-1.296028,1.241759,0.263269,0.962488,0.065578,0.000000,0.000000,0.000000,-1,0.383195,-1.582474,-2.568913,0.027686,0.006094,0.231648
"2018-06-07 00:59:24.253 +0000",1528333164.253228,1.791023,-1.325236,1.229966,0.237218,0.970001,0.053103,0.000000,0.000000,0.000000,-1,1.135687,-1.302255,-2.662326,-0.007390,0.128281,0.179853
"2018-06-07 00:59:24.263 +0000",1528333164.263302,1.742272,-1.356638,1.188862,0.209397,0.977156,0.036263,0.000000,0.000000,0.000000,-1,1.676454,-0.566524,-3.143313,-0.619004,0.194414,-0.202568
"2018-06-07 00:59:24.273 +0000",1528333164.273376,1.607298,-1.402133,1.054156,0.167738,0.985810,0.006125,0.000000,0.000000,0.000000,-1,3.633995,-0.345722,-4.501391,-1.055998,0.694518,-0.411323
"2018-06-07 00:59:24.283 +0000",1528333164.283450,1.342858,-1.424318,0.794512,0.142165,0.989291,-0.032978,0.000000,0.000000,0.000000,-1,3.287635,-0.959709,-2.816848,-0.370070,0.345441,-0.508770
"2018-06-07 00:59:24.294 +0000",1528333164.293525,1.035108,-1.467096,0.499749,0.088997,0.994628,-0.052827,0.000000,0.000000,0.000000,-1,1.350806,-1.545119,-5.341882,-0.952797,-0.822722,-0.181715
"2018-06-07 00:59:24.304 +0000",1528333164.303599,0.503362,-1.499312,-0.009084,0.034440,0.997446,-0.062542,0.000000,0.000000,0.000000,-1,0.735629,-2.857499,-5.358274,0.025206,-0.451929,-0.314824
"2018-06-07 00:59:24.314 +0000",1528333164.313673,-0.297414,-1.498554,-0.772158,-0.021145,0.997392,-0.068987,0.000000,0.000000,0.000000,-1,0.586823,-4.216372,-5.234960,0.540981,-0.029191,-0.209669
"2018-06-07 00:59:24.324 +0000",1528333164.323747,-0.779895,-1.466757,-1.220258,-0.073017,0.994593,-0.073825,0.000000,0.000000,0.000000,-1,0.661442,-3.190960,-4.683569,1.158008,0.264105,0.445331
"2018-06-07 00:59:24.334 +0000",1528333164.333821,-0.964040,-1.432657,-1.385292,-0.113111,0.990474,-0.078510,0.000000,0.000000,0.000000,-1,0.633660,-1.678548,-3.577645,1.308026,0.124486,0.648380
"2018-06-07 00:59:24.344 +0000",1528333164.343895,-1.030602,-1.407579,-1.445896,-0.139346,0.986710,-0.083565,0.000000,0.000000,0.000000,-1,0.575846,-0.290147,-2.238598,0.979098,-0.073288,0.319603
"2018-06-07 00:59:24.354 +0000",1528333164.353969,-1.045641,-1.395338,-1.464102,-0.151029,0.984647,-0.087510,0.000000,0.000000,0.000000,-1,0.215984,0.272807,-0.856084,0.685346,-0.507443,0.250383
"2018-06-07 00:59:24.364 +0000",1528333164.364044,-1.065177,-1.395375,-1.477807,-0.152678,0.984653,-0.084526,0.000000,0.000000,0.000000,-1,-0.318386,-0.897319,0.076471,0.305373,-0.816318,-0.217385
"2018-06-07 00:59:24.374 +0000",1528333164.374118,-1.082332,-1.401153,-1.482682,-0.149079,0.985645,-0.079223,0.000000,0.000000,0.000000,-1,-0.307028,-1.236304,0.554121,-0.032425,-0.191806,-0.257142
"2018-06-07 00:59:24.384 +0000",1528333164.384192,-1.083429,-1.406724,-1.473795,-0.144311,0.986570,-0.076486,0.000000,0.000000,0.000000,-1,-0.082508,-0.896430,0.544915,-0.314552,0.214617,-0.227164
"2018-06-07 00:59:24.394 +0000",1528333164.394266,-1.076295,-1.411535,-1.460556,-0.139581,0.987345,-0.075260,0.000000,0.000000,0.000000,-1,-0.041728,-0.468064,0.515950,-0.385398,0.121634,-0.249432
"2018-06-07 00:59:24.404 +0000",1528333164.404340,-1.067065,-1.416049,-1.450626,-0.134976,0.988051,-0.074393,0.000000,0.000000,0.000000,-1,-0.089110,0.042468,0.468064,-0.247654,-0.079969,-0.075296
"2018-06-07 00:59:24.414 +0000",1528333164.414414,-1.056648,-1.420595,-1.438674,-0.130280,0.988741,-0.073584,0.000000,0.000000,0.000000,-1,-0.048113,-0.272623,0.502549,-0.084488,-0.215212,-0.094217
"2018-06-07 00:59:24.424 +0000",1528333164.424488,-1.047052,-1.425930,-1.422743,-0.124996,0.989525,-0.072191,0.000000,0.000000,0.000000,-1,-0.076863,-0.670515,0.602568,0.001324,-0.138070,-0.140074
"2018-06-07 00:59:24.435 +0000",1528333164.434562,-1.040294,-1.432179,-1.410949,-0.119169,0.990408,-0.069904,0.000000,0.000000,0.000000,-1,-0.199051,-0.415132,0.616499,0.077726,0.104593,0.071750
"2018-06-07 00:59:24.445 +0000",1528333164.444637,-1.033901,-1.438640,-1.401386,-0.113217,0.991280,-0.067389,0.000000,0.000000,0.000000,-1,-0.223417,-0.260447,0.624534,0.181043,0.252861,0.030966
"2018-06-07 00:59:24.455 +0000",1528333164.454711,-1.030005,-1.446858,-1.394653,-0.105964,0.992329,-0.063632,0.000000,0.000000,0.000000,-1,-0.390695,-0.352798,0.808584,0.227042,-0.078404,-0.030896
"2018-06-07 00:59:24.465 +0000",1528333164.464785,-1.017459,-1.457550,-1.375108,-0.096122,0.993595,-0.059375,0.000000,0.000000,0.000000,-1,-0.323168,-0.766565,1.093347,0.173271,-0.456592,-0.171032
"2018-06-07 00:59:24.475 +0000",1528333164.474859,-0.983579,-1.469173,-1.332021,-0.084434,0.994841,-0.056194,0.000000,0.000000,0.000000,-1,-0.238084,-0.889912,1.244459,0.046714,-0.316099,-0.175267
"2018-06-07 00:59:24.485 +0000",1528333164.484933,-0.950892,-1.480926,-1.292153,-0.073028,0.995964,-0.052125,0.000000,0.000000,0.000000,-1,-0.398234,-0.626455,1.140179,-0.100602,-0.006676,-0.025771
"2018-06-07 00:59:24.495 +0000",1528333164.495007,-0.940406,-1.492129,-1.275713,-0.063456,0.996907,-0.046304,0.000000,0.000000,0.000000,-1,-0.579325,-0.619459,0.922258,-0.197485,0.114268,0.058023
"2018-06-07 00:59:24.505 +0000",1528333164.505081,-0.966431,-1.502884,-1.292638,-0.055809,0.997695,-0.038540,0.000000,0.000000,0.000000,-1,-0.793042,-1.014581,0.762403,-0.178688,0.010316,0.085384
"2018-06-07 00:59:24.515 +0000",1528333164.515156,-1.076259,-1.514361,-1.389458,-0.049610,0.998408,-0.026751,0.000000,0.000000,0.000000,-1,-1.226462,-1.369776,0.621453,-0.070751,-0.021464,0.189715
"2018-06-07 00:59:24.525 +0000",1528333164.525230,-1.360156,-1.524540,-1.659944,-0.045166,0.998930,-0.009657,0.000000,0.000000,0.000000,-1,-1.745933,-1.370405,0.426873,-0.080490,0.106081,0.401701
"2018-06-07 00:59:24.535 +0000",1528333164.535304,-1.817705,-1.526884,-2.103705,-0.042514,0.999036,0.010716,0.000000,0.000000,0.000000,-1,-2.049612,-1.395437,0.173644,-0.018750,0.346560,0.345348
"2018-06-07 00:59:24.545 +0000",1528333164.545378,-2.270955,-1.514553,-2.546358,-0.042956,0.998419,0.036193,0.000000,0.000000,0.000000,-1,-2.644315,-0.985282,-0.122831,-0.028929,0.409891,0.417176
"2018-06-07 00:59:24.555 +0000",1528333164.555452,-2.535429,-1.491169,-2.805498,-0.045298,0.996831,0.065344,0.000000,0.000000,0.000000,-1,-2.874344,-0.465838,-0.323014,-0.136251,0.055628,0.287530
"2018-06-07 00:59:24.566 +0000",1528333164.565526,-2.620473,-1.465998,-2.887146,-0.052066,0.994514,0.090699,0.000000,0.000000,0.000000,-1,-2.353605,-0.363371,-0.853126,-0.373029,0.320199,-0.211335
"2018-06-07 00:59:24.576 +0000",1528333164.575600,-2.606653,-1.443465,-2.870214,-0.064726,0.991904,0.109228,0.000000,0.000000,0.000000,-1,-1.654021,-0.256954,-1.421283,-0.435549,0.455544,-0.519598
"2018-06-07 00:59:24.586 +0000",1528333164.585675,-2.557135,-1.424586,-2.819541,-0.080374,0.989330,0.121492,0.000000,0.000000,0.000000,-1,-1.103629,-0.002223,-1.591755,-0.221216,0.157154,-0.587876
"2018-06-07 00:59:24.596 +0000",1528333164.595749,-2.505098,-1.409547,-2.767894,-0.095418,0.987027,0.129099,0.000000,0.000000,0.000000,-1,-0.685804,0.111381,-1.441791,-0.010661,0.063830,-0.440866
"2018-06-07 00:59:24.606 +0000",1528333164.605823,-2.467928,-1.397109,-2.731923,-0.107801,0.984954,0.135050,0.000000,0.000000,0.000000,-1,-0.589437,0.209209,-1.145924,0.052671,0.090836,-0.123499
"2018-06-07 00:59:24.616 +0000",1528333164.615897,-2.441263,-1.387798,-2.707661,-0.117269,0.983302,0.139134,0.000000,0.000000,0.000000,-1,-0.398631,0.274300,-0.834235,0.014715,0.062001,0.043437
"2018-06-07 00:59:24.626 +0000",1528333164.625971,-2.427027,-1.380913,-2.694617,-0.123671,0.982026,0.142561,0.000000,0.000000,0.000000,-1,-0.361580,0.082304,-0.574572,-0.112733,0.018615,0.018740
"2018-06-07 00:59:24.636 +0000",1528333164.636045,-2.420418,-1.375215,-2.686781,-0.128303,0.980935,0.145940,0.000000,0.000000,0.000000,-1,-0.318073,-0.168328,-0.464610,-0.278282,0.124397,-0.057134
"2018-06-07 00:59:24.646 +0000",1528333164.646119,-2.417067,-1.370200,-2.680534,-0.132050,0.979948,0.149192,0.000000,0.000000,0.000000,-1,-0.267998,-0.292487,-0.404849,-0.333694,0.136843,-0.122458
"2018-06-07 00:59:24.656 +0000",1528333164.656194,-2.408431,-1.367459,-2.669035,-0.135131,0.979398,0.150041,0.000000,0.000000,0.000000,-1,0.041266,-0.245816,-0.334429,-0.302873,0.143664,-0.157091
"2018-06-07 00:59:24.666 +0000",1528333164.666268,-2.391297,-1.367721,-2.649665,-0.137508,0.979451,0.147517,0.000000,0.000000,0.000000,-1,0.351349,-0.148745,-0.240200,-0.255452,0.201411,-0.190425
"2018-06-07 00:59:24.676 +0000",1528333164.676342,-2.369561,-1.370503,-2.628217,-0.138780,0.980008,0.142540,0.000000,0.000000,0.000000,-1,0.534623,0.151845,-0.070869,-0.219192,0.163058,-0.143730
"2018-06-07 00:59:24.686 +0000",1528333164.686416,-2.346544,-1.375539,-2.608565,-0.138498,0.980998,0.135850,0.000000,0.000000,0.000000,-1,0.661948,0.451028,0.135158,-0.201086,0.165319,-0.114457
"2018-06-07 00:59:24.696 +0000",1528333164.696490,-2.320109,-1.383779,-2.589304,-0.136116,0.982563,0.126631,0.000000,0.000000,0.000000,-1,0.888372,0.852258,0.417625,-0.170479,0.213451,-0.123304
"2018-06-07 00:59:24.707 +0000",1528333164.706564,-2.287706,-1.395882,-2.568741,-0.131172,0.984741,0.114332,0.000000,0.000000,0.000000,-1,1.137662,1.331404,0.721780,-0.170632,0.300110,-0.124402
"2018-06-07 00:59:24.717 +0000",1528333164.716638,-2.250767,-1.411361,-2.548105,-0.123435,0.987317,0.099811,0.000000,0.000000,0.000000,-1,1.266147,1.732222,1.037816,-0.170297,0.401996,-0.151844
"2018-06-07 00:59:24.727 +0000",1528333164.726712,-2.221657,-1.428725,-2.537198,-0.112629,0.989925,0.085774,0.000000,0.000000,0.000000,-1,1.160921,1.838315,1.323411,-0.124416,0.365849,-0.138524
"2018-06-07 00:59:24.737 +0000",1528333164.736787,-2.207020,-1.447905,-2.542676,-0.098578,0.992458,0.072819,0.000000,0.000000,0.000000,-1,1.074101,2.059512,1.659855,-0.052820,0.258961,-0.107715
"2018-06-07 00:59:24.747 +0000",1528333164.746861,-2.214181,-1.470510,-2.573234,-0.080078,0.994976,0.060044,0.000000,0.000000,0.000000,-1,1.048188,2.380248,2.122299,0.043487,0.048192,-0.087037
"2018-06-07 00:59:24.757 +0000",1528333164.756935,-2.289965,-1.496198,-2.673648,-0.056042,0.997219,0.049071,0.000000,0.000000,0.000000,-1,0.876019,2.379720,2.658363,0.009351,0.016880,-0.049910
"2018-06-07 00:59:24.767 +0000",1528333164.767009,-2.563772,-1.521619,-2.968983,-0.026818,0.998791,0.041128,0.000000,0.000000,0.000000,-1,0.642939,1.958937,3.108368,-0.079139,0.012394,-0.018423
"2018-06-07 00:59:24.777 +0000",1528333164.777083,2.971809,-1.534656,2.551789,0.006092,0.999347,0.035538,0.000000,0.000000,0.000000,-1,0.508206,1.209862,3.375409,-0.174900,-0.013706,-0.011674
"2018-06-07 00:59:24.787 +0000",1528333164.787157,2.225025,-1.520799,1.797903,0.039617,0.998750,0.030382,0.000000,0.000000,0.000000,-1,0.564040,0.475893,3.307532,-0.222936,-0.111040,-0.001772
"2018-06-07 00:59:24.797 +0000",1528333164.797231,1.927322,-1.502510,1.496408,0.063908,0.997669,0.023802,0.000000,0.000000,0.000000,-1,0.627427,0.349101,1.907603,-0.235630,-0.217243,0.044634
"2018-06-07 00:59:24.807 +0000",1528333164.807306,1.862163,-1.501193,1.422507,0.066581,0.997579,0.019968,0.000000,0.000000,0.000000,-1,0.389760,1.076289,-0.195850,-0.195060,-0.474004,0.246054
"2018-06-07 00:59:24.817 +0000",1528333164.817380,1.888611,-1.512485,1.431641,0.055320,0.998300,0.018198,0.000000,0.000000,0.000000,-1,0.234676,1.912610,-1.304203,0.098810,-0.785471,0.342779
"2018-06-07 00:59:24.827 +0000",1528333164.827454,2.034278,-1.527263,1.555490,0.038881,0.999053,0.019433,0.000000,0.000000,0.000000,-1,-0.119087,2.208335,-1.640285,0.296827,-0.567702,0.212287
"2018-06-07 00:59:24.838 +0000",1528333164.837528,2.348223,-1.538846,1.846650,0.022716,0.999490,0.022356,0.000000,0.000000,0.000000,-1,-0.226396,2.302923,-1.492401,0.411336,-0.195840,0.011274
"2018-06-07 00:59:24.848 +0000",1528333164.847602,2.748846,-1.542610,2.228007,0.010755,0.999603,0.025962,0.000000,0.000000,0.000000,-1,-0.373511,1.727425,-1.002169,0.462832,0.055558,-0.165107
"2018-06-07 00:59:24.858 +0000",1528333164.857676,2.997864,-1.539517,2.467960,0.004469,0.999511,0.030881,0.000000,0.000000,0.000000,-1,-0.503646,0.614981,-0.468360,0.358247,0.072923,-0.402600
"2018-06-07 00:59:24.868 +0000",1528333164.867750,3.040542,-1.535442,2.512116,0.003560,0.999375,0.035107,0.000000,0.000000,0.000000,-1,-0.377245,-0.380187,0.017874,0.199138,-0.017503,-0.461590
"2018-06-07 00:59:24.878 +0000",1528333164.877825,2.934847,-1.532348,2.415389,0.007880,0.999261,0.037568,0.000000,0.000000,0.000000,-1,-0.212456,-1.030629,0.523309,0.083704,-0.196038,-0.343140
"2018-06-07 00:59:24.888 +0000",1528333164.887899,2.756336,-1.528624,2.249311,0.015825,0.999111,0.039023,0.000000,0.000000,0.000000,-1,-0.151162,-1.293903,0.780558,-0.028672,-0.222728,-0.175116
"2018-06-07 00:59:24.898 +0000",1528333164.897973,2.612140,-1.523660,2.118394,0.023775,0.998889,0.040628,0.000000,0.000000,0.000000,-1,-0.201992,-1.321155,0.700997,-0.134752,-0.037921,-0.053079
"2018-06-07 00:59:24.908 +0000",1528333164.908047,2.528197,-1.519046,2.045323,0.029752,0.998661,0.042262,0.000000,0.000000,0.000000,-1,-0.174480,-0.977713,0.495409,-0.134931,0.038097,0.031193
"2018-06-07 00:59:24.918 +0000",1528333164.918121,2.482541,-1.516561,2.005264,0.033168,0.998530,0.042821,0.000000,0.000000,0.000000,-1,-0.036602,-0.418645,0.252549,-0.066219,0.076284,0.044826
"2018-06-07 00:59:24.928 +0000",1528333164.928195,2.469089,-1.516350,1.992607,0.033875,0.998518,0.042538,0.000000,0.000000,0.000000,-1,0.032071,0.010690,0.010544,-0.003464,0.130373,0.045841
"2018-06-07 00:59:24.938 +0000",1528333164.938269,2.482942,-1.517209,2.004917,0.032756,0.998565,0.042323,0.000000,0.000000,0.000000,-1,0.018296,0.175910,-0.130929,0.039830,0.142854,0.040547
"2018-06-07 00:59:24.948 +0000",1528333164.948344,2.506586,-1.517843,2.027795,0.031371,0.998598,0.042576,0.000000,0.000000,0.000000,-1,-0.038322,0.029728,-0.125846,0.072160,0.084440,0.009853
"2018-06-07 00:59:24.958 +0000",1528333164.958418,2.525175,-1.517676,2.048377,0.030670,0.998589,0.043288,0.000000,0.000000,0.000000,-1,-0.089995,-0.278063,-0.061009,0.085510,0.043082,-0.004500
"2018-06-07 00:59:24.968 +0000",1528333164.968492,2.543240,-1.516621,2.071469,0.030477,0.998533,0.044706,0.000000,0.000000,0.000000,-1,-0.181262,-0.557234,-0.041174,0.063029,0.015536,-0.006681
"2018-06-07 00:59:24.979 +0000",1528333164.978566,2.558644,-1.514916,2.092710,0.030723,0.998439,0.046592,0.000000,0.000000,0.000000,-1,-0.203792,-0.555358,0.020194,0.047540,-0.039699,0.001137
"2018-06-07 00:59:24.989 +0000",1528333164.988640,2.555914,-1.512971,2.093088,0.031923,0.998329,0.048126,0.000000,0.000000,0.000000,-1,-0.145140,-0.202194,0.135106,0.068617,-0.030174,0.030121
"2018-06-07 00:59:24.999 +0000",1528333164.998714,2.536563,-1.510817,2.071621,0.034072,0.998202,0.049270,0.000000,0.000000,0.000000,-1,-0.096155,0.346333,0.253837,0.068543,-0.034914,0.018678
"2018-06-07 00:59:25.009 +0000",1528333165.008788,2.308168,-1.513953,1.836057,0.042022,0.998385,0.038168,0.000000,0.000000,0.000000,-1,-0.059549,0.857603,0.347746,0.044297,-0.011599,-0.008016
"2018-06-07 00:59:25.019 +0000",1528333165.018862,2.276100,-1.510759,1.792475,0.045653,0.998198,0.038869,0.000000,0.000000,0.000000,-1,-0.006878,1.212023,0.420724,0.007997,0.016649,-0.056752
"2018-06-07 00:59:25.029 +0000",1528333165.028937,2.240211,-1.507468,1.743668,0.049595,0.997995,0.039244,0.000000,0.000000,0.000000,-1,0.031740,1.268013,0.445538,-0.041736,0.048437,-0.124709
"2018-06-07 00:59:25.039 +0000",1528333165.039011,2.203265,-1.504318,1.695189,0.053544,0.997791,0.039243,0.000000,0.000000,0.000000,-1,0.069845,1.078266,0.430916,-0.078676,0.068798,-0.177350
"2018-06-07 00:59:25.049 +0000",1528333165.049085,2.011519,-1.503879,1.494734,0.060441,0.997762,0.028508,0.000000,0.000000,0.000000,-1,0.148113,0.826162,0.391280,-0.111421,0.043696,-0.175694
"2018-06-07 00:59:25.059 +0000",1528333165.059159,1.966086,-1.501722,1.442585,0.063660,0.997615,0.026562,0.000000,0.000000,0.000000,-1,0.261285,0.596255,0.317208,-0.126511,0.013554,-0.157223
"2018-06-07 00:59:25.069 +0000",1528333165.069233,1.912690,-1.500575,1.384298,0.066064,0.997535,0.023510,0.000000,0.000000,0.000000,-1,0.359808,0.437729,0.227243,-0.123513,0.002175,-0.100445
"2018-06-07 00:59:25.079 +0000",1528333165.079307,1.854365,-1.500166,1.322159,0.067713,0.997507,0.019733,0.000000,0.000000,0.000000,-1,0.406643,0.343740,0.158021,-0.093455,-0.023431,-0.033024
"2018-06-07 00:59:25.089 +0000",1528333165.089381,1.677669,-1.499604,1.142509,0.070687,0.997467,0.007583,0.000000,0.000000,0.000000,-1,0.362913,0.304288,0.112829,-0.040520,-0.084946,0.043015
"2018-06-07 00:59:25.099 +0000",1528333165.099455,1.639257,-1.499074,1.101686,0.071455,0.997429,0.004899,0.000000,0.000000,0.000000,-1,0.245720,0.210846,0.066573,0.007403,-0.117409,0.085127
"2018-06-07 00:59:25.110 +0000",1528333165.109529,1.621032,-1.498707,1.080710,0.071900,0.997403,0.003615,0.000000,0.000000,0.000000,-1,0.115603,0.292927,0.040219,0.006957,-0.117383,0.086412
"2018-06-07 00:59:25.120 +0000",1528333165.119603,1.620707,-1.498416,1.076390,0.072192,0.997382,0.003606,0.000000,0.000000,0.000000,-1,0.000012,0.430967,0.030128,0.104642,-0.038748,0.177180
"2018-06-07 00:59:25.130 +0000",1528333165.129677,1.543081,-1.496495,0.993500,0.074169,0.997241,-0.002056,0.000000,0.000000,0.000000,-1,-0.119125,0.594043,0.068523,0.135625,-0.019412,0.177319
"2018-06-07 00:59:25.140 +0000",1528333165.139751,1.578752,-1.495683,1.022064,0.075003,0.997180,0.000597,0.000000,0.000000,0.000000,-1,-0.237070,0.747315,0.089676,0.146021,-0.031894,0.141402
"2018-06-07 00:59:25.150 +0000",1528333165.149825,1.625503,-1.494407,1.061130,0.076163,0.997084,0.004171,0.000000,0.000000,0.000000,-1,-0.313023,0.769989,0.129715,0.150445,-0.038664,0.074259
"2018-06-07 00:59:25.160 +0000",1528333165.159899,1.675906,-1.492493,1.104459,0.077756,0.996936,0.008203,0.000000,0.000000,0.000000,-1,-0.354253,0.695042,0.173693,0.139605,-0.042834,0.011832
"2018-06-07 00:59:25.170 +0000",1528333165.169974,1.649551,-1.489493,1.072236,0.080927,0.996697,0.006387,0.000000,0.000000,0.000000,-1,-0.366842,0.593968,0.184184,0.095496,-0.058586,-0.027413
"2018-06-07 00:59:25.180 +0000",1528333165.180048,1.697433,-1.487170,1.114903,0.082826,0.996505,0.010545,0.000000,0.000000,0.000000,-1,-0.368959,0.517070,0.195798,0.046874,-0.045822,-0.053026
"2018-06-07 00:59:25.190 +0000",1528333165.190122,1.741407,-1.484733,1.154135,0.084675,0.996299,0.014588,0.000000,0.000000,0.000000,-1,-0.361504,0.471016,0.188117,-0.001423,-0.010657,-0.071885
"2018-06-07 00:59:25.200 +0000",1528333165.200196,1.783161,-1.482174,1.191845,0.086487,0.996076,0.018648,0.000000,0.000000,0.000000,-1,-0.371924,0.394149,0.186842,-0.035049,0.012729,-0.086672
"2018-06-07 00:59:25.210 +0000",1528333165.210270,1.994576,-1.436599,1.398547,0.121941,0.991009,0.055009,0.000000,0.000000,0.000000,-1,-0.352838,0.378923,0.165241,-0.107475,0.022144,-0.118089
"2018-06-07 00:59:25.220 +0000",1528333165.220344,2.037309,-1.405238,1.436932,0.147177,0.986327,0.074116,0.000000,0.000000,0.000000,-1,-0.300037,0.444027,0.120132,-0.160452,0.018923,-0.122182
"2018-06-07 00:59:25.230 +0000",1528333165.230418,2.008033,-1.387254,1.403560,0.165330,0.983203,0.077277,0.000000,0.000000,0.000000,-1,-0.247172,0.503675,0.067478,-0.181031,0.003720,-0.120047
"2018-06-07 00:59:25.240 +0000",1528333165.240492,1.956897,-1.379985,1.348605,0.175680,0.981851,0.071415,0.000000,0.000000,0.000000,-1,-0.219263,0.515063,-0.012151,-0.192174,-0.007257,-0.116474
"2018-06-07 00:59:25.251 +0000",1528333165.250567,1.910839,-1.382096,1.298731,0.176827,0.982249,0.062559,0.000000,0.000000,0.000000,-1,-0.220739,0.509908,-0.092836,-0.182595,-0.012202,-0.093092
"2018-06-07 00:59:25.261 +0000",1528333165.260641,1.878558,-1.390844,1.263004,0.170557,0.983852,0.054213,0.000000,0.000000,0.000000,-1,-0.226076,0.425848,-0.208162,-0.144006,-0.009304,-0.069594
"2018-06-07 00:59:25.271 +0000",1528333165.270715,1.854509,-1.403829,1.235976,0.159532,0.986093,0.046516,0.000000,0.000000,0.000000,-1,-0.238497,0.381980,-0.226547,-0.069566,-0.022348,-0.040367
"2018-06-07 00:59:25.281 +0000",1528333165.280789,1.833010,-1.417863,1.212032,0.147112,0.988328,0.039484,0.000000,0.000000,0.000000,-1,-0.274076,0.305069,-0.234219,0.000379,-0.049776,-0.035318
"2018-06-07 00:59:25.291 +0000",1528333165.290863,1.824197,-1.434294,1.201236,0.131713,0.990698,0.034109,0.000000,0.000000,0.000000,-1,-0.324351,0.250662,-0.382701,0.034181,0.027887,-0.020514
"2018-06-07 00:59:25.301 +0000",1528333165.300937,1.837162,-1.450698,1.212293,0.115561,0.992797,0.031531,0.000000,0.000000,0.000000,-1,-0.383719,0.244180,-0.447123,0.113291,0.057862,-0.009421
"2018-06-07 00:59:25.311 +0000",1528333165.311011,1.864829,-1.463163,1.237008,0.102789,0.994213,0.031126,0.000000,0.000000,0.000000,-1,-0.444264,0.377641,-0.375603,0.174966,0.009418,-0.002500
"2018-06-07 00:59:25.321 +0000",1528333165.321086,1.902341,-1.472635,1.269982,0.092641,0.995186,0.031892,0.000000,0.000000,0.000000,-1,-0.490063,0.519951,-0.310546,0.175883,0.005378,-0.006928
"2018-06-07 00:59:25.331 +0000",1528333165.331160,1.955369,-1.473994,1.318466,0.089566,0.995318,0.036249,0.000000,0.000000,0.000000,-1,-0.515415,0.455000,-0.283785,0.143924,0.042478,-0.076899
"2018-06-07 00:59:25.341 +0000",1528333165.341234,2.021492,-1.474463,1.381115,0.086555,0.995363,0.041885,0.000000,0.000000,0.000000,-1,-0.533112,0.350695,-0.291578,0.108193,0.078016,-0.114746
"2018-06-07 00:59:25.351 +0000",1528333165.351308,2.090242,-1.474727,1.447205,0.083245,0.995389,0.047601,0.000000,0.000000,0.000000,-1,-0.548532,0.277247,-0.326177,0.083015,0.113437,-0.120950
"2018-06-07 00:59:25.361 +0000",1528333165.361382,2.161555,-1.474803,1.516234,0.079578,0.995396,0.053369,0.000000,0.000000,0.000000,-1,-0.554544,0.259815,-0.361710,0.090771,0.104824,-0.148584
"2018-06-07 00:59:25.371 +0000",1528333165.371456,2.223625,-1.475471,1.575882,0.075586,0.995460,0.057799,0.000000,0.000000,0.000000,-1,-0.533280,0.284178,-0.398260,0.108817,0.087182,-0.171278
"2018-06-07 00:59:25.382 +0000",1528333165.381530,2.229844,-1.470859,1.579796,0.078856,0.995010,0.061080,0.000000,0.000000,0.000000,-1,-0.513064,0.289867,-0.432710,0.132082,0.074997,-0.192992
"2018-06-07 00:59:25.392 +0000",1528333165.391604,2.300509,-1.471179,1.648199,0.074109,0.995042,0.066283,0.000000,0.000000,0.000000,-1,-0.493882,0.243941,-0.463006,0.136828,0.074965,-0.198195
"2018-06-07 00:59:25.402 +0000",1528333165.401679,2.230678,-1.460564,1.577494,0.086896,0.993931,0.067424,0.000000,0.000000,0.000000,-1,-0.458952,0.180481,-0.490161,0.192553,0.053021,-0.258815
"2018-06-07 00:59:25.412 +0000",1528333165.411753,2.235910,-1.460584,1.581992,0.086527,0.993933,0.067866,0.000000,0.000000,0.000000,-1,-0.384114,0.130310,-0.518445,0.238104,0.049799,-0.278101
"2018-06-07 00:59:25.422 +0000",1528333165.421827,2.291168,-1.462680,1.636485,0.081079,0.994161,0.071165,0.000000,0.000000,0.000000,-1,-0.298824,0.099910,-0.542393,0.291113,0.052561,-0.298201
"2018-06-07 00:59:25.432 +0000",1528333165.431901,2.343378,-1.465169,1.688402,0.075483,0.994427,0.073572,0.000000,0.000000,0.000000,-1,-0.215689,0.039819,-0.555666,0.340533,0.050434,-0.318064
"2018-06-07 00:59:25.442 +0000",1528333165.441975,2.390371,-1.467904,1.736113,0.070086,0.994711,0.075048,0.000000,0.000000,0.000000,-1,-0.128571,-0.075297,-0.533612,0.389936,0.069086,-0.336568
"2018-06-07 00:59:25.452 +0000",1528333165.452049,2.418458,-1.471798,1.765689,0.065386,0.995104,0.074081,0.000000,0.000000,0.000000,-1,-0.000662,-0.132182,-0.496423,0.421751,0.104445,-0.327102
"2018-06-07 00:59:25.462 +0000",1528333165.462123,2.443494,-1.475938,1.792600,0.060861,0.995504,0.072536,0.000000,0.000000,0.000000,-1,0.197559,-0.193297,-0.450802,0.447913,0.188761,-0.312542
"2018-06-07 00:59:25.472 +0000",1528333165.472197,2.446405,-1.481091,1.798427,0.057363,0.995979,0.068772,0.000000,0.000000,0.000000,-1,0.407864,-0.322759,-0.329037,0.493373,0.318627,-0.287812
"2018-06-07 00:59:25.482 +0000",1528333165.482272,2.415554,-1.485990,1.771822,0.056214,0.996406,0.063318,0.000000,0.000000,0.000000,-1,0.548837,-0.467272,-0.067322,0.526855,0.389321,-0.249475
"2018-06-07 00:59:25.492 +0000",1528333165.492346,2.324017,-1.489842,1.685839,0.058964,0.996725,0.055287,0.000000,0.000000,0.000000,-1,0.670203,-0.604533,0.284812,0.509304,0.331537,-0.251087
"2018-06-07 00:59:25.502 +0000",1528333165.502420,2.200508,-1.490674,1.568916,0.064655,0.996792,0.047112,0.000000,0.000000,0.000000,-1,0.804377,-0.714188,0.606879,0.415219,0.226810,-0.292580
"2018-06-07 00:59:25.512 +0000",1528333165.512494,2.041726,-1.489324,1.417970,0.072490,0.996683,0.036907,0.000000,0.000000,0.000000,-1,1.031162,-0.874535,0.774770,0.231938,0.175818,-0.384732
"2018-06-07 00:59:25.523 +0000",1528333165.522568,1.847246,-1.486719,1.233310,0.080755,0.996468,0.022911,0.000000,0.000000,0.000000,-1,1.414617,-1.088698,0.790479,0.014735,0.105492,-0.529366
"2018-06-07 00:59:25.533 +0000",1528333165.532642,1.603635,-1.481434,1.001428,0.089163,0.996010,0.002929,0.000000,0.000000,0.000000,-1,1.856129,-1.276182,0.765258,-0.104148,-0.002556,-0.546523
"2018-06-07 00:59:25.543 +0000",1528333165.542716,1.363364,-1.471916,0.773216,0.096576,0.995115,-0.020325,0.000000,0.000000,0.000000,-1,2.308981,-1.285820,0.745907,-0.133593,-0.076872,-0.423263
"2018-06-07 00:59:25.553 +0000",1528333165.552791,1.139226,-1.456591,0.560002,0.103486,0.993486,-0.047658,0.000000,0.000000,0.000000,-1,2.697649,-1.170488,0.725991,-0.156510,-0.116121,-0.265742
"2018-06-07 00:59:25.563 +0000",1528333165.562865,0.954717,-1.435481,0.384688,0.110085,0.990859,-0.077941,0.000000,0.000000,0.000000,-1,2.981034,-0.996274,0.731227,-0.181374,-0.084639,-0.133866
"2018-06-07 00:59:25.573 +0000",1528333165.572939,0.810709,-1.408506,0.247842,0.117097,0.986860,-0.111314,0.000000,0.000000,0.000000,-1,3.134067,-0.803812,0.748647,-0.211824,0.031725,-0.045836
"2018-06-07 00:59:25.583 +0000",1528333165.583013,0.711675,-1.380312,0.154410,0.123647,0.981913,-0.143368,0.000000,0.000000,0.000000,-1,3.138104,-0.660008,0.752283,-0.235097,0.225729,0.018856
"2018-06-07 00:59:25.593 +0000",1528333165.593087,0.641595,-1.351629,0.087763,0.130112,0.976079,-0.174173,0.000000,0.000000,0.000000,-1,3.027851,-0.405483,0.716704,-0.249649,0.470576,0.097574
"2018-06-07 00:59:25.603 +0000",1528333165.603161,0.589781,-1.324308,0.036075,0.135703,0.969775,-0.202772,0.000000,0.000000,0.000000,-1,2.851279,-0.061683,0.552459,-0.293097,0.671002,0.169279
"2018-06-07 00:59:25.613 +0000",1528333165.613235,0.547620,-1.297726,-0.009328,0.140412,0.962948,-0.230245,0.000000,0.000000,0.000000,-1,2.675760,0.272235,0.389258,-0.305481,0.767079,0.252096
"2018-06-07 00:59:25.623 +0000",1528333165.623309,0.518330,-1.273905,-0.045684,0.144934,0.956250,-0.254117,0.000000,0.000000,0.000000,-1,2.507920,0.644222,0.315430,-0.274237,0.765353,0.325436
"2018-06-07 00:59:25.633 +0000",1528333165.633384,0.499134,-1.251827,-0.074360,0.150101,0.949559,-0.275325,0.000000,0.000000,0.000000,-1,2.267215,0.832370,0.315453,-0.231400,0.707027,0.395854
"2018-06-07 00:59:25.643 +0000",1528333165.643458,0.486764,-1.232299,-0.095721,0.155329,0.943255,-0.293496,0.000000,0.000000,0.000000,-1,1.943821,0.748056,0.311645,-0.220301,0.602979,0.424355
"2018-06-07 00:59:25.654 +0000",1528333165.653532,0.475705,-1.215278,-0.113122,0.159405,0.937466,-0.309425,0.000000,0.000000,0.000000,-1,1.576022,0.450955,0.235253,-0.236980,0.441120,0.433296
"2018-06-07 00:59:25.664 +0000",1528333165.663606,0.463395,-1.202666,-0.126443,0.160856,0.933002,-0.321916,0.000000,0.000000,0.000000,-1,1.254949,-0.143386,0.128846,-0.198988,0.256161,0.368607
"2018-06-07 00:59:25.674 +0000",1528333165.673680,0.448103,-1.192371,-0.134237,0.160068,0.929248,-0.332977,0.000000,0.000000,0.000000,-1,0.954475,-1.054788,0.251657,-0.008197,0.101453,0.343414
"2018-06-07 00:59:25.684 +0000",1528333165.683754,0.435910,-1.183927,-0.129149,0.159304,0.926095,-0.342005,0.000000,0.000000,0.000000,-1,0.599412,-1.824687,0.626707,0.312498,-0.022546,0.418086
"2018-06-07 00:59:25.694 +0000",1528333165.693828,0.430548,-1.173991,-0.115863,0.161300,0.922300,-0.351199,0.000000,0.000000,0.000000,-1,0.644174,-1.628227,0.928356,0.466584,-0.071302,0.282657
"2018-06-07 00:59:25.704 +0000",1528333165.703902,0.432271,-1.160969,-0.100874,0.166923,0.917190,-0.361796,0.000000,0.000000,0.000000,-1,1.031889,-1.074655,1.115165,0.481774,-0.065352,0.004008
"2018-06-07 00:59:25.714 +0000",1528333165.713977,0.436829,-1.144387,-0.085570,0.174981,0.910457,-0.374763,0.000000,0.000000,0.000000,-1,1.278185,-0.928755,1.303263,0.414405,-0.056315,-0.032616
"2018-06-07 00:59:25.724 +0000",1528333165.724051,0.442085,-1.126105,-0.067238,0.184040,0.902743,-0.388820,0.000000,0.000000,0.000000,-1,1.316749,-1.214952,1.514245,0.259548,-0.034122,0.095134
"2018-06-07 00:59:25.734 +0000",1528333165.734125,0.445158,-1.107202,-0.047240,0.192548,0.894451,-0.403583,0.000000,0.000000,0.000000,-1,1.214625,-1.545968,1.586659,0.002535,0.011357,0.232242
"2018-06-07 00:59:25.744 +0000",1528333165.744199,0.445973,-1.090212,-0.026570,0.199404,0.886725,-0.417078,0.000000,0.000000,0.000000,-1,1.091152,-1.808559,1.558212,-0.220156,0.028406,0.330972
"2018-06-07 00:59:25.754 +0000",1528333165.754273,0.443735,-1.074451,-0.006586,0.204445,0.879329,-0.430092,0.000000,0.000000,0.000000,-1,0.987830,-2.031449,1.499715,-0.348992,0.031712,0.389428
"2018-06-07 00:59:25.764 +0000",1528333165.764347,0.438784,-1.059565,0.012250,0.207852,0.872143,-0.442902,0.000000,0.000000,0.000000,-1,0.945417,-2.149832,1.429551,-0.402615,0.009938,0.452530
"2018-06-07 00:59:25.774 +0000",1528333165.774421,0.431578,-1.044648,0.028829,0.210074,0.864748,-0.456154,0.000000,0.000000,0.000000,-1,0.938792,-2.107717,1.329654,-0.433463,-0.037096,0.518853
"2018-06-07 00:59:25.784 +0000",1528333165.784495,0.423905,-1.031154,0.042953,0.211349,0.857892,-0.468348,0.000000,0.000000,0.000000,-1,0.919972,-1.917137,1.158148,-0.466827,-0.094251,0.576655
"2018-06-07 00:59:25.795 +0000",1528333165.794570,0.415969,-1.019139,0.055164,0.211775,0.851657,-0.479404,0.000000,0.000000,0.000000,-1,0.787369,-1.813831,1.042582,-0.462309,-0.164523,0.600574
"2018-06-07 00:59:25.805 +0000",1528333165.804644,0.407732,-1.008637,0.066986,0.211354,0.846106,-0.489317,0.000000,0.000000,0.000000,-1,0.698754,-1.801633,0.954618,-0.422429,-0.236991,0.591703
"2018-06-07 00:59:25.815 +0000",1528333165.814718,0.397642,-0.998794,0.075410,0.209621,0.840819,-0.499079,0.000000,0.000000,0.000000,-1,0.677016,-1.654868,0.758252,-0.464199,-0.291472,0.561076
"2018-06-07 00:59:25.825 +0000",1528333165.824792,0.388072,-0.990586,0.082715,0.207440,0.836347,-0.507434,0.000000,0.000000,0.000000,-1,0.570560,-1.530681,0.654519,-0.426572,-0.337736,0.572406
"2018-06-07 00:59:25.835 +0000",1528333165.834866,0.378922,-0.984119,0.089913,0.204785,0.832785,-0.514325,0.000000,0.000000,0.000000,-1,0.402981,-1.503430,0.589368,-0.387647,-0.361898,0.557080
"2018-06-07 00:59:25.845 +0000",1528333165.844940,0.370219,-0.979640,0.097644,0.201649,0.830297,-0.519560,0.000000,0.000000,0.000000,-1,0.208955,-1.495027,0.551113,-0.358967,-0.367116,0.537809
"2018-06-07 00:59:25.855 +0000",1528333165.855014,0.362110,-0.977068,0.105734,0.198185,0.828861,-0.523173,0.000000,0.000000,0.000000,-1,0.015882,-1.437249,0.519454,-0.335972,-0.372409,0.515284
"2018-06-07 00:59:25.865 +0000",1528333165.865088,0.356111,-0.976434,0.114796,0.195226,0.828506,-0.524845,0.000000,0.000000,0.000000,-1,-0.162536,-1.302574,0.484758,-0.313055,-0.376449,0.490773
"2018-06-07 00:59:25.875 +0000",1528333165.875163,0.352284,-0.977667,0.124361,0.192864,0.829195,-0.524630,0.000000,0.000000,0.000000,-1,-0.345175,-1.122889,0.446976,-0.288384,-0.384585,0.468447
"2018-06-07 00:59:25.885 +0000",1528333165.885237,0.350374,-0.980813,0.134272,0.190965,0.830950,-0.522544,0.000000,0.000000,0.000000,-1,-0.526629,-0.970586,0.395128,-0.284517,-0.378603,0.425956
"2018-06-07 00:59:25.895 +0000",1528333165.895311,0.349495,-0.985959,0.143699,0.189039,0.833802,-0.518687,0.000000,0.000000,0.000000,-1,-0.700500,-0.809349,0.312095,-0.302747,-0.366623,0.378017
"2018-06-07 00:59:25.905 +0000",1528333165.905385,0.350278,-0.993089,0.152799,0.187400,0.837717,-0.512942,0.000000,0.000000,0.000000,-1,-0.881449,-0.632605,0.191476,-0.335746,-0.360849,0.342471
"2018-06-07 00:59:25.915 +0000",1528333165.915459,0.351859,-1.002476,0.160652,0.185492,0.842806,-0.505241,0.000000,0.000000,0.000000,-1,-1.065285,-0.455726,0.036443,-0.360465,-0.359652,0.303992
"2018-06-07 00:59:25.926 +0000",1528333165.925533,0.354049,-1.014177,0.167270,0.183167,0.849046,-0.495548,0.000000,0.000000,0.000000,-1,-1.259680,-0.298676,-0.108943,-0.362824,-0.352220,0.247624
"2018-06-07 00:59:25.936 +0000",1528333165.935607,0.356258,-1.028316,0.172151,0.180056,0.856431,-0.483842,0.000000,0.000000,0.000000,-1,-1.440406,-0.139384,-0.256505,-0.346086,-0.322541,0.190919
"2018-06-07 00:59:25.946 +0000",1528333165.945681,0.359267,-1.044289,0.175890,0.176678,0.864568,-0.470431,0.000000,0.000000,0.000000,-1,-1.584224,0.014599,-0.422453,-0.325970,-0.256169,0.129565
"2018-06-07 00:59:25.956 +0000",1528333165.955755,0.361159,-1.061892,0.177075,0.172162,0.873279,-0.455787,0.000000,0.000000,0.000000,-1,-1.676335,0.100760,-0.611305,-0.295667,-0.157596,0.043448
"2018-06-07 00:59:25.966 +0000",1528333165.965830,0.359932,-1.080718,0.174744,0.165783,0.882296,-0.440531,0.000000,0.000000,0.000000,-1,-1.715711,0.064174,-0.813542,-0.244778,-0.019442,-0.072836
"2018-06-07 00:59:25.976 +0000",1528333165.975904,0.352944,-1.100043,0.167724,0.156776,0.891227,-0.425597,0.000000,0.000000,0.000000,-1,-1.655584,-0.107385,-0.962618,-0.151833,0.146310,-0.233689
"2018-06-07 00:59:25.986 +0000",1528333165.985978,0.342461,-1.117826,0.158423,0.146961,0.899151,-0.412222,0.000000,0.000000,0.000000,-1,-1.470487,-0.264901,-0.974256,-0.014301,0.310520,-0.417810
"2018-06-07 00:59:25.996 +0000",1528333165.996052,0.331317,-1.132912,0.151516,0.137929,0.905651,-0.400961,0.000000,0.000000,0.000000,-1,-1.258121,-0.564097,-0.689492,0.191721,0.435277,-0.575235
"2018-06-07 00:59:26.006 +0000",1528333166.006126,0.322490,-1.144434,0.150348,0.131069,0.910476,-0.392240,0.000000,0.000000,0.000000,-1,-0.997038,-0.833854,-0.324077,0.299717,0.582886,-0.796099
"2018-06-07 00:59:26.016 +0000",1528333166.016200,0.314485,-1.151568,0.152554,0.125912,0.913403,-0.387090,0.000000,0.000000,0.000000,-1,-0.608372,-1.003041,-0.035035,0.310382,0.727878,-1.011531
"2018-06-07 00:59:26.026 +0000",1528333166.026274,0.310191,-1.153313,0.157408,0.123763,0.914112,-0.386108,0.000000,0.000000,0.000000,-1,-0.092487,-0.784089,0.189230,0.322221,0.818752,-0.943237
"2018-06-07 00:59:26.036 +0000",1528333166.036348,0.310723,-1.149384,0.164633,0.125065,0.912512,-0.389459,0.000000,0.000000,0.000000,-1,0.397736,-0.574244,0.473764,0.326092,0.852823,-0.696600
"2018-06-07 00:59:26.046 +0000",1528333166.046423,0.313244,-1.140692,0.175899,0.128486,0.908922,-0.396673,0.000000,0.000000,0.000000,-1,0.758042,-0.870917,0.778635,0.259378,0.777250,-0.652506
"2018-06-07 00:59:26.056 +0000",1528333166.056497,0.313148,-1.128921,0.189449,0.131735,0.903951,-0.406836,0.000000,0.000000,0.000000,-1,0.936637,-1.313604,0.965176,0.177286,0.542261,-0.650720
"2018-06-07 00:59:26.067 +0000",1528333166.066571,0.312192,-1.117328,0.204272,0.134555,0.898933,-0.416907,0.000000,0.000000,0.000000,-1,0.865499,-1.412497,0.940311,0.077054,0.197197,-0.454339
"2018-06-07 00:59:26.077 +0000",1528333166.076645,0.311870,-1.108445,0.216997,0.136866,0.895006,-0.424534,0.000000,0.000000,0.000000,-1,0.590369,-1.061189,0.752650,-0.024943,-0.255602,-0.159603
"2018-06-07 00:59:26.087 +0000",1528333166.086719,0.314337,-1.103505,0.228268,0.139278,0.892792,-0.428395,0.000000,0.000000,0.000000,-1,0.218369,-0.661953,0.590089,-0.133816,-0.711609,-0.006053
"2018-06-07 00:59:26.097 +0000",1528333166.096793,0.318965,-1.102040,0.239376,0.141669,0.892131,-0.428987,0.000000,0.000000,0.000000,-1,-0.142749,-0.454166,0.538814,-0.268821,-1.012156,0.019533
"2018-06-07 00:59:26.107 +0000",1528333166.106868,0.326774,-1.103901,0.249943,0.144482,0.892970,-0.426294,0.000000,0.000000,0.000000,-1,-0.379761,-0.043274,0.303910,-0.545299,-0.861110,0.075266
"2018-06-07 00:59:26.117 +0000",1528333166.116942,0.330433,-1.110894,0.251000,0.144011,0.896096,-0.419846,0.000000,0.000000,0.000000,-1,-0.801393,0.336003,-0.368450,-0.899550,-0.152520,0.428788
"2018-06-07 00:59:26.127 +0000",1528333166.127017,0.323893,-1.125515,0.241289,0.137077,0.902489,-0.408314,0.000000,0.000000,0.000000,-1,-1.373994,0.142778,-1.006634,-1.080040,0.574882,0.584019
"2018-06-07 00:59:26.137 +0000",1528333166.137091,0.305599,-1.143728,0.221078,0.124618,0.910184,-0.395010,0.000000,0.000000,0.000000,-1,-1.447564,0.049810,-1.399347,-1.126449,1.205935,0.542821
"2018-06-07 00:59:26.147 +0000",1528333166.147165,0.284170,-1.158029,0.193054,0.112465,0.916014,-0.385054,0.000000,0.000000,0.000000,-1,-0.864470,0.552360,-1.482045,-0.847328,1.466554,0.646025
"2018-06-07 00:59:26.157 +0000",1528333166.157239,0.267852,-1.165809,0.164716,0.104277,0.919107,-0.379954,0.000000,0.000000,0.000000,-1,-0.324020,1.095039,-1.213868,-0.334792,1.084906,0.461176
"2018-06-07 00:59:26.167 +0000",1528333166.167313,0.260791,-1.169912,0.142659,0.100618,0.920716,-0.377033,0.000000,0.000000,0.000000,-1,-0.132910,1.350834,-0.828481,0.227766,0.584197,-0.035793
"2018-06-07 00:59:26.177 +0000",1528333166.177387,0.263924,-1.170754,0.129861,0.101597,0.921045,-0.375967,0.000000,0.000000,0.000000,-1,0.099176,1.577622,-0.304514,0.639187,0.147284,0.022192
"2018-06-07 00:59:26.187 +0000",1528333166.187461,0.278498,-1.170087,0.126859,0.107234,0.920785,-0.375038,0.000000,0.000000,0.000000,-1,0.047801,1.732347,-0.061926,0.377644,-0.254632,0.715187
"2018-06-07 00:59:26.198 +0000",1528333166.197535,0.294528,-1.172815,0.130711,0.112503,0.921845,-0.370866,0.000000,0.000000,0.000000,-1,-0.437079,0.981562,0.118785,0.067353,-0.645402,1.075822
"2018-06-07 00:59:26.208 +0000",1528333166.207610,0.306429,-1.180130,0.142633,0.114871,0.924656,-0.363061,0.000000,0.000000,0.000000,-1,-0.949460,-0.194986,0.240235,0.001035,-0.803409,1.113855
"2018-06-07 00:59:26.218 +0000",1528333166.217684,0.310922,-1.191342,0.156388,0.113322,0.928867,-0.352648,0.000000,0.000000,0.000000,-1,-1.251875,-0.940982,0.184975,-0.137080,-0.751209,1.162982
"2018-06-07 00:59:26.228 +0000",1528333166.227758,0.314258,-1.202973,0.169616,0.111150,0.933112,-0.341970,0.000000,0.000000,0.000000,-1,-1.216441,-0.800972,0.066980,-0.217077,-0.664756,1.047766
"2018-06-07 00:59:26.238 +0000",1528333166.237832,0.318106,-1.213589,0.177332,0.109361,0.936877,-0.332112,0.000000,0.000000,0.000000,-1,-1.050688,-0.167404,-0.121946,-0.241685,-0.355609,0.783802
"2018-06-07 00:59:26.248 +0000",1528333166.247906,0.322891,-1.224823,0.177627,0.107602,0.940746,-0.321583,0.000000,0.000000,0.000000,-1,-1.092221,0.671349,-0.424894,-0.221112,0.036213,0.659733
"2018-06-07 00:59:26.258 +0000",1528333166.257980,0.329566,-1.239718,0.169961,0.105199,0.945692,-0.307564,0.000000,0.000000,0.000000,-1,-1.407377,1.622749,-0.808637,-0.166631,0.405840,0.691659
"2018-06-07 00:59:26.268 +0000",1528333166.268054,0.339274,-1.258890,0.156037,0.102126,0.951750,-0.289375,0.000000,0.000000,0.000000,-1,-1.731580,2.462842,-1.094799,-0.018874,0.736863,0.648292
"2018-06-07 00:59:26.278 +0000",1528333166.278128,0.353702,-1.280421,0.141420,0.099168,0.958137,-0.268582,0.000000,0.000000,0.000000,-1,-1.899895,2.890584,-1.113606,0.171690,0.861764,0.483837
"2018-06-07 00:59:26.288 +0000",1528333166.288202,0.377088,-1.302239,0.134504,0.097699,0.964155,-0.246691,0.000000,0.000000,0.000000,-1,-1.962684,2.994829,-0.882971,0.238406,0.648638,0.287203
"2018-06-07 00:59:26.298 +0000",1528333166.298277,0.412351,-1.322315,0.140575,0.098557,0.969287,-0.225310,0.000000,0.000000,0.000000,-1,-1.866533,2.872871,-0.531810,0.185302,0.297040,0.128478
"2018-06-07 00:59:26.308 +0000",1528333166.308351,0.458681,-1.339074,0.160637,0.101678,0.973272,-0.205907,0.000000,0.000000,0.000000,-1,-1.647227,2.580060,-0.194336,0.108847,-0.030050,0.017812
"2018-06-07 00:59:26.318 +0000",1528333166.318425,0.510095,-1.352184,0.190717,0.105886,0.976199,-0.189256,0.000000,0.000000,0.000000,-1,-1.401644,2.047369,0.033740,-0.008336,-0.256183,-0.044402
"2018-06-07 00:59:26.328 +0000",1528333166.328499,0.560418,-1.362032,0.225856,0.110156,0.978288,-0.175538,0.000000,0.000000,0.000000,-1,-1.156300,1.434941,0.165852,-0.096163,-0.372910,-0.039504
"2018-06-07 00:59:26.339 +0000",1528333166.338573,0.605924,-1.370170,0.261786,0.113488,0.979942,-0.163795,0.000000,0.000000,0.000000,-1,-0.969419,0.914805,0.240282,-0.111657,-0.390724,-0.005944
"2018-06-07 00:59:26.349 +0000",1528333166.348647,0.649317,-1.375672,0.298044,0.117225,0.981023,-0.154420,0.000000,0.000000,0.000000,-1,-0.821246,0.771376,0.248130,-0.120536,-0.384313,0.026613
"2018-06-07 00:59:26.359 +0000",1528333166.358721,0.688637,-1.380102,0.328861,0.120441,0.981873,-0.146336,0.000000,0.000000,0.000000,-1,-0.671584,0.959889,0.157982,-0.135532,-0.270523,0.039875
"2018-06-07 00:59:26.369 +0000",1528333166.368795,0.721761,-1.384230,0.350867,0.122542,0.982647,-0.139222,0.000000,0.000000,0.000000,-1,-0.549879,1.200165,0.008888,-0.125136,-0.080959,0.051790
"2018-06-07 00:59:26.379 +0000",1528333166.378870,0.749025,-1.389452,0.364955,0.122796,0.983602,-0.132070,0.000000,0.000000,0.000000,-1,-0.479678,1.368886,-0.126314,-0.059243,0.074305,0.064596
"2018-06-07 00:59:26.389 +0000",1528333166.388944,0.772007,-1.394430,0.373690,0.122380,0.984488,-0.125703,0.000000,0.000000,0.000000,-1,-0.466104,1.441943,-0.261664,0.018153,0.158350,0.071870
"2018-06-07 00:59:26.399 +0000",1528333166.399018,0.794588,-1.400521,0.382384,0.120906,0.985538,-0.118704,0.000000,0.000000,0.000000,-1,-0.566305,1.359633,-0.333742,0.103352,0.170330,0.086569
"2018-06-07 00:59:26.409 +0000",1528333166.409092,0.824286,-1.407712,0.400161,0.119172,0.986731,-0.110246,0.000000,0.000000,0.000000,-1,-0.753338,1.151487,-0.298423,0.191619,0.115945,0.110978
"2018-06-07 00:59:26.419 +0000",1528333166.419166,0.869528,-1.416167,0.435375,0.117657,0.988069,-0.099356,0.000000,0.000000,0.000000,-1,-0.958021,1.020813,-0.162803,0.234760,0.032454,0.151663
"2018-06-07 00:59:26.429 +0000",1528333166.429240,0.934713,-1.423854,0.490449,0.117764,0.989223,-0.086966,0.000000,0.000000,0.000000,-1,-1.169851,1.095621,-0.079275,0.215793,-0.026729,0.191977
"2018-06-07 00:59:26.439 +0000",1528333166.439314,1.017318,-1.431978,0.561503,0.117697,0.990380,-0.072725,0.000000,0.000000,0.000000,-1,-1.315702,1.257849,-0.118268,0.134546,-0.045281,0.161684
"2018-06-07 00:59:26.449 +0000",1528333166.449388,1.113807,-1.440110,0.645851,0.116924,0.991473,-0.057492,0.000000,0.000000,0.000000,-1,-1.382484,1.272181,-0.177234,0.081700,-0.043703,0.044583
"2018-06-07 00:59:26.459 +0000",1528333166.459462,1.219999,-1.448231,0.741049,0.114793,0.992498,-0.042007,0.000000,0.000000,0.000000,-1,-1.333615,1.111163,-0.229445,0.035750,-0.024237,-0.106202
"2018-06-07 00:59:26.470 +0000",1528333166.469537,1.322227,-1.454601,0.834438,0.112348,0.993257,-0.028516,0.000000,0.000000,0.000000,-1,-1.205799,0.893345,-0.297062,-0.026135,0.013503,-0.179721
"2018-06-07 00:59:26.480 +0000",1528333166.479611,1.418077,-1.460591,0.922631,0.108677,0.993933,-0.016727,0.000000,0.000000,0.000000,-1,-1.049337,0.797679,-0.417095,-0.102971,0.044839,-0.177761
"2018-06-07 00:59:26.490 +0000",1528333166.489685,1.509773,-1.466905,1.007399,0.103482,0.994608,-0.006323,0.000000,0.000000,0.000000,-1,-0.936795,0.714078,-0.563884,-0.133008,0.065984,-0.165369
"2018-06-07 00:59:26.500 +0000",1528333166.499759,1.611548,-1.474326,1.103077,0.096208,0.995350,0.003923,0.000000,0.000000,0.000000,-1,-0.893619,0.623670,-0.704079,-0.106858,0.085552,-0.154176
"2018-06-07 00:59:26.510 +0000",1528333166.509833,1.719384,-1.481324,1.206220,0.088332,0.996000,0.013223,0.000000,0.000000,0.000000,-1,-0.875910,0.467150,-0.802459,-0.038070,0.097689,-0.173837
"2018-06-07 00:59:26.520 +0000",1528333166.519907,1.843803,-1.487965,1.327210,0.079635,0.996571,0.022298,0.000000,0.000000,0.000000,-1,-0.869991,0.367581,-0.876982,0.044129,0.098033,-0.208394
"2018-06-07 00:59:26.530 +0000",1528333166.529981,1.985007,-1.493921,1.465420,0.070266,0.997047,0.030892,0.000000,0.000000,0.000000,-1,-0.811723,0.330672,-0.937459,0.112733,0.087090,-0.248193
"2018-06-07 00:59:26.540 +0000",1528333166.540055,2.145021,-1.499257,1.622809,0.059974,0.997442,0.038800,0.000000,0.000000,0.000000,-1,-0.686435,0.289446,-0.971210,0.176904,0.088389,-0.302762
"2018-06-07 00:59:26.550 +0000",1528333166.550129,2.300528,-1.503576,1.775726,0.050028,0.997742,0.044747,0.000000,0.000000,0.000000,-1,-0.538312,0.299757,-0.975822,0.236380,0.109284,-0.337761
"2018-06-07 00:59:26.560 +0000",1528333166.560204,2.454155,-1.507200,1.926228,0.040297,0.997978,0.049081,0.000000,0.000000,0.000000,-1,-0.373737,0.359347,-0.940529,0.293672,0.128135,-0.343346
"2018-06-07 00:59:26.570 +0000",1528333166.570278,2.598756,-1.510411,2.066798,0.031147,0.998177,0.051628,0.000000,0.000000,0.000000,-1,-0.191627,0.451760,-0.867534,0.347439,0.129539,-0.336800
"2018-06-07 00:59:26.580 +0000",1528333166.580352,2.737814,-1.513555,2.200648,0.022454,0.998362,0.052554,0.000000,0.000000,0.000000,-1,0.007123,0.561703,-0.775164,0.391822,0.124807,-0.328387
"2018-06-07 00:59:26.590 +0000",1528333166.590426,2.856159,-1.517236,2.312683,0.015055,0.998566,0.051304,0.000000,0.000000,0.000000,-1,0.174332,0.669344,-0.678425,0.425527,0.125152,-0.321537
"2018-06-07 00:59:26.600 +0000",1528333166.600500,2.966389,-1.521282,2.415721,0.008615,0.998774,0.048665,0.000000,0.000000,0.000000,-1,0.302689,0.739540,-0.578480,0.442633,0.121892,-0.311773
"2018-06-07 00:59:26.611 +0000",1528333166.610574,3.069975,-1.525836,2.512058,0.003210,0.998989,0.044749,0.000000,0.000000,0.000000,-1,0.424829,0.721897,-0.478776,0.447351,0.101093,-0.313593
"2018-06-07 00:59:26.621 +0000",1528333166.620648,-3.105067,-1.530889,2.613495,-0.001454,0.999204,0.039777,0.000000,0.000000,0.000000,-1,0.547121,0.650519,-0.392137,0.431477,0.067263,-0.330518
"2018-06-07 00:59:26.631 +0000",1528333166.630722,-2.988617,-1.536867,2.724359,-0.005153,0.999424,0.033423,0.000000,0.000000,0.000000,-1,0.656002,0.532008,-0.331419,0.408702,0.026439,-0.378516
"2018-06-07 00:59:26.641 +0000",1528333166.640796,-2.835205,-1.544042,2.873712,-0.008030,0.999642,0.025383,0.000000,0.000000,0.000000,-1,0.861469,0.350038,-0.257124,0.393039,-0.018258,-0.482749
"2018-06-07 00:59:26.651 +0000",1528333166.650871,-2.443014,-1.553528,-3.017235,-0.010978,0.999851,0.013071,0.000000,0.000000,0.000000,-1,1.373950,-0.126885,-0.324223,0.398719,0.013501,-0.627680
"2018-06-07 00:59:26.661 +0000",1528333166.660945,-1.176933,-1.554109,-1.747046,-0.015217,0.999861,-0.006324,0.000000,0.000000,0.000000,-1,2.129166,-0.429536,-0.426868,0.456715,0.114946,-0.553292
"2018-06-07 00:59:26.671 +0000",1528333166.671019,-0.509219,-1.534346,-1.073463,-0.017722,0.999336,-0.031740,0.000000,0.000000,0.000000,-1,2.627053,-0.617098,-0.133827,0.606390,0.226296,-0.273741
"2018-06-07 00:59:26.681 +0000",1528333166.681093,-0.241113,-1.510283,-0.796223,-0.014428,0.998170,-0.058674,0.000000,0.000000,0.000000,-1,2.696703,-0.955683,0.549138,0.731820,0.343246,-0.094249
"2018-06-07 00:59:26.691 +0000",1528333166.691167,-0.050507,-1.484503,-0.594905,-0.004349,0.996279,-0.086039,0.000000,0.000000,0.000000,-1,2.749182,-1.002357,1.243749,0.657944,0.244398,0.015986
"2018-06-07 00:59:26.701 +0000",1528333166.701241,0.105616,-1.456079,-0.428742,0.012064,0.993427,-0.113803,0.000000,0.000000,0.000000,-1,2.767294,-0.868837,1.877651,0.495001,0.012600,0.039935
"2018-06-07 00:59:26.711 +0000",1528333166.711315,0.230594,-1.425069,-0.295897,0.033185,0.989401,-0.141351,0.000000,0.000000,0.000000,-1,2.737807,-0.605981,2.265716,0.135883,-0.108846,-0.006248
"2018-06-07 00:59:26.721 +0000",1528333166.721389,0.314921,-1.392108,-0.206091,0.055048,0.984078,-0.168984,0.000000,0.000000,0.000000,-1,2.781818,-0.371969,2.250161,-0.404307,-0.020989,-0.081459
"2018-06-07 00:59:26.731 +0000",1528333166.731463,0.367193,-1.356855,-0.149808,0.076215,0.977202,-0.198148,0.000000,0.000000,0.000000,-1,2.994450,-0.275569,2.177886,-0.690549,0.237352,-0.170855
"2018-06-07 00:59:26.742 +0000",1528333166.741538,0.397234,-1.319895,-0.117007,0.096047,0.968689,-0.228935,0.000000,0.000000,0.000000,-1,3.153094,-0.131747,2.017670,-0.821846,0.620148,-0.105842
"2018-06-07 00:59:26.752 +0000",1528333166.751612,0.414259,-1.284650,-0.101040,0.113609,0.959339,-0.258375,0.000000,0.000000,0.000000,-1,2.981092,0.265560,1.662105,-0.935844,1.066449,0.198683
"2018-06-07 00:59:26.762 +0000",1528333166.761686,0.422947,-1.254984,-0.097583,0.127478,0.950544,-0.283214,0.000000,0.000000,0.000000,-1,2.525630,0.615494,1.158613,-0.899939,1.289217,0.412517
"2018-06-07 00:59:26.772 +0000",1528333166.771760,0.426060,-1.231571,-0.103162,0.137521,0.943013,-0.303002,0.000000,0.000000,0.000000,-1,2.096288,0.905015,0.680701,-0.731271,1.194774,0.486931
"2018-06-07 00:59:26.782 +0000",1528333166.781834,0.423780,-1.212752,-0.115565,0.144103,0.936584,-0.319438,0.000000,0.000000,0.000000,-1,1.846652,0.901261,0.362871,-0.493224,0.891831,0.423045
"2018-06-07 00:59:26.792 +0000",1528333166.791908,0.418283,-1.195761,-0.128247,0.148788,0.930495,-0.334719,0.000000,0.000000,0.000000,-1,1.691261,0.530196,0.264264,-0.227935,0.531724,0.259570
"2018-06-07 00:59:26.802 +0000",1528333166.801982,0.410213,-1.179957,-0.139347,0.151928,0.924589,-0.349353,0.000000,0.000000,0.000000,-1,1.577219,0.129228,0.255829,-0.030087,0.269899,0.133213
"2018-06-07 00:59:26.812 +0000",1528333166.812056,0.400927,-1.165597,-0.147497,0.153844,0.919024,-0.362937,0.000000,0.000000,0.000000,-1,1.368385,-0.266656,0.280971,0.154918,0.117231,0.126761
"2018-06-07 00:59:26.822 +0000",1528333166.822130,0.394934,-1.154125,-0.149787,0.155713,0.914441,-0.373559,0.000000,0.000000,0.000000,-1,1.035245,-0.380286,0.455658,0.358203,0.045337,0.300989
"2018-06-07 00:59:26.832 +0000",1528333166.832205,0.400965,-1.143398,-0.140292,0.161782,0.910047,-0.381623,0.000000,0.000000,0.000000,-1,0.769061,-0.207256,0.903163,0.566719,-0.008039,0.459001
"2018-06-07 00:59:26.842 +0000",1528333166.842279,0.423040,-1.131703,-0.116279,0.174524,0.905137,-0.387638,0.000000,0.000000,0.000000,-1,0.653599,0.111411,1.537910,0.694296,-0.061326,0.472263
"2018-06-07 00:59:26.852 +0000",1528333166.852353,0.454796,-1.116618,-0.083374,0.192720,0.898622,-0.394124,0.000000,0.000000,0.000000,-1,0.802090,0.191024,2.023993,0.477156,-0.080781,0.240727
"2018-06-07 00:59:26.862 +0000",1528333166.862427,0.484678,-1.098477,-0.047376,0.211971,0.890515,-0.402550,0.000000,0.000000,0.000000,-1,0.973736,-0.428867,2.316523,0.122044,-0.068646,0.035728
"2018-06-07 00:59:26.873 +0000",1528333166.872501,0.502354,-1.077653,-0.013846,0.227934,0.880849,-0.414905,0.000000,0.000000,0.000000,-1,1.121698,-1.462592,2.325009,-0.252058,0.028803,0.050159
"2018-06-07 00:59:26.883 +0000",1528333166.882575,0.504356,-1.056878,0.013625,0.237557,0.870825,-0.430379,0.000000,0.000000,0.000000,-1,1.174949,-2.425239,2.074689,-0.568932,0.110147,0.196156
"2018-06-07 00:59:26.893 +0000",1528333166.892649,0.493201,-1.037902,0.035109,0.240523,0.861340,-0.447479,0.000000,0.000000,0.000000,-1,1.127558,-3.083822,1.762020,-0.716475,0.083591,0.366043
"2018-06-07 00:59:26.903 +0000",1528333166.902723,0.475662,-1.021681,0.052902,0.239005,0.852987,-0.463989,0.000000,0.000000,0.000000,-1,1.039075,-3.293942,1.547558,-0.703605,-0.029378,0.489273
"2018-06-07 00:59:26.913 +0000",1528333166.912797,0.454804,-1.005873,0.067803,0.235171,0.844630,-0.480928,0.000000,0.000000,0.000000,-1,1.067927,-3.317183,1.349506,-0.611773,-0.112299,0.498109
"2018-06-07 00:59:26.923 +0000",1528333166.922871,0.432346,-0.990924,0.078888,0.229577,0.836532,-0.497498,0.000000,0.000000,0.000000,-1,1.072625,-3.072495,1.117867,-0.542718,-0.151626,0.608521
"2018-06-07 00:59:26.933 +0000",1528333166.932946,0.412241,-0.978197,0.087801,0.223777,0.829492,-0.511726,0.000000,0.000000,0.000000,-1,0.901481,-2.612160,0.916302,-0.474586,-0.199594,0.806541
"2018-06-07 00:59:26.943 +0000",1528333166.943020,0.395387,-0.969152,0.095296,0.218002,0.824406,-0.522328,0.000000,0.000000,0.000000,-1,0.668240,-2.174035,0.734175,-0.427414,-0.233158,0.887013
"2018-06-07 00:59:26.953 +0000",1528333166.953094,0.381769,-0.962310,0.101419,0.212966,0.820515,-0.530470,0.000000,0.000000,0.000000,-1,0.443623,-1.743453,0.524040,-0.446211,-0.262089,0.897566
"2018-06-07 00:59:26.963 +0000",1528333166.963168,0.370702,-0.958251,0.105668,0.208287,0.818187,-0.535895,0.000000,0.000000,0.000000,-1,0.229437,-1.365602,0.329862,-0.488499,-0.318202,0.849188
"2018-06-07 00:59:26.973 +0000",1528333166.973242,0.361682,-0.956783,0.109053,0.203869,0.817343,-0.538874,0.000000,0.000000,0.000000,-1,0.014871,-1.114269,0.200932,-0.501537,-0.394857,0.777262
"2018-06-07 00:59:26.983 +0000",1528333166.983316,0.353259,-0.958709,0.112959,0.198778,0.818451,-0.539094,0.000000,0.000000,0.000000,-1,-0.255927,-1.161049,0.182054,-0.454256,-0.469513,0.714845
"2018-06-07 00:59:26.993 +0000",1528333166.993390,0.346139,-0.962264,0.118922,0.193946,0.820488,-0.537756,0.000000,0.000000,0.000000,-1,-0.510236,-1.194777,0.202975,-0.392784,-0.510673,0.672048
"2018-06-07 00:59:27.003 +0000",1528333167.003464,0.340375,-0.967919,0.125223,0.189292,0.823708,-0.534482,0.000000,0.000000,0.000000,-1,-0.689337,-1.039034,0.117787,-0.423621,-0.539207,0.615674
"2018-06-07 00:59:27.014 +0000",1528333167.013538,0.335949,-0.975583,0.130940,0.184838,0.828029,-0.529339,0.000000,0.000000,0.000000,-1,-0.870528,-0.860224,0.028371,-0.444374,-0.602580,0.540981
"2018-06-07 00:59:27.024 +0000",1528333167.023612,0.332523,-0.986598,0.135607,0.180034,0.834155,-0.521315,0.000000,0.000000,0.000000,-1,-1.098644,-0.665985,-0.107148,-0.490001,-0.657534,0.487288
"2018-06-07 00:59:27.034 +0000",1528333167.033687,0.330062,-0.999714,0.139062,0.175190,0.841316,-0.511363,0.000000,0.000000,0.000000,-1,-1.358905,-0.492476,-0.294285,-0.562107,-0.683525,0.417567
"2018-06-07 00:59:27.044 +0000",1528333167.043761,0.327456,-1.016219,0.141116,0.169367,0.850123,-0.498600,0.000000,0.000000,0.000000,-1,-1.667510,-0.417969,-0.465465,-0.556848,-0.676570,0.338199
"2018-06-07 00:59:27.054 +0000",1528333167.053835,0.324517,-1.036338,0.142613,0.162413,0.860545,-0.482784,0.000000,0.000000,0.000000,-1,-1.997313,-0.419410,-0.602397,-0.463988,-0.625941,0.244960
"2018-06-07 00:59:27.064 +0000",1528333167.063909,0.319165,-1.060744,0.141959,0.153190,0.872719,-0.463563,0.000000,0.000000,0.000000,-1,-2.277356,-0.494086,-0.781605,-0.361900,-0.520790,0.117600
"2018-06-07 00:59:27.074 +0000",1528333167.073983,0.312309,-1.086997,0.140926,0.142918,0.885234,-0.442641,0.000000,0.000000,0.000000,-1,-2.509638,-0.600784,-0.884646,-0.164814,-0.352367,0.005843
"2018-06-07 00:59:27.084 +0000",1528333167.084057,0.303199,-1.114455,0.136939,0.131571,0.897671,-0.420561,0.000000,0.000000,0.000000,-1,-2.534802,-0.511292,-1.038145,-0.000528,-0.069057,-0.161165
"2018-06-07 00:59:27.094 +0000",1528333167.094131,0.290843,-1.140271,0.126159,0.119677,0.908747,-0.399815,0.000000,0.000000,0.000000,-1,-2.207937,-0.153833,-1.246529,0.144315,0.345037,-0.528759
"2018-06-07 00:59:27.104 +0000",1528333167.104204,0.273338,-1.160976,0.105763,0.107557,0.917192,-0.383646,0.000000,0.000000,0.000000,-1,-1.475828,0.207374,-1.294483,0.299517,0.829939,-1.064962
"2018-06-07 00:59:27.114 +0000",1528333167.114278,0.259019,-1.171614,0.087895,0.099548,0.921379,-0.375694,0.000000,0.000000,0.000000,-1,-0.625703,0.161536,-0.794237,0.580979,1.142876,-1.393426
"2018-06-07 00:59:27.124 +0000",1528333167.124353,0.252982,-1.173311,0.084765,0.096886,0.922037,-0.374773,0.000000,0.000000,0.000000,-1,0.007013,-0.501117,0.054297,0.743003,1.161489,-1.414351
"2018-06-07 00:59:27.134 +0000",1528333167.134427,0.253587,-1.169511,0.094345,0.097992,0.920560,-0.378103,0.000000,0.000000,0.000000,-1,0.336559,-0.862317,0.542986,0.542282,0.839618,-1.032969
"2018-06-07 00:59:27.145 +0000",1528333167.144501,0.258315,-1.164131,0.107554,0.101042,0.918445,-0.382418,0.000000,0.000000,0.000000,-1,0.455866,-0.644224,0.708997,0.227526,0.418377,-0.405790
"2018-06-07 00:59:27.155 +0000",1528333167.154575,0.267937,-1.157154,0.123316,0.106411,0.915663,-0.387599,0.000000,0.000000,0.000000,-1,0.524282,-0.450122,0.802986,-0.022091,0.105654,-0.158437
"2018-06-07 00:59:27.165 +0000",1528333167.164649,0.277653,-1.149518,0.139631,0.112085,0.912567,-0.393260,0.000000,0.000000,0.000000,-1,0.556644,-0.551187,0.841341,-0.245523,-0.125198,-0.255101
"2018-06-07 00:59:27.175 +0000",1528333167.174723,0.285651,-1.142505,0.155415,0.117027,0.909677,-0.398482,0.000000,0.000000,0.000000,-1,0.444661,-0.645736,0.800448,-0.374565,-0.344445,-0.377946
"2018-06-07 00:59:27.185 +0000",1528333167.184797,0.296330,-1.137459,0.168620,0.122614,0.907570,-0.401594,0.000000,0.000000,0.000000,-1,0.368279,0.243866,0.652620,-0.564509,-0.360405,-0.647569
"2018-06-07 00:59:27.195 +0000",1528333167.194871,0.305059,-1.135170,0.166381,0.126739,0.906606,-0.402489,0.000000,0.000000,0.000000,-1,0.140816,1.068480,-0.329751,-1.104294,0.862940,-0.058586
"2018-06-07 00:59:27.205 +0000",1528333167.204945,0.272014,-1.140787,0.141705,0.112002,0.908962,-0.401545,0.000000,0.000000,0.000000,-1,-0.289566,-1.973640,-1.355175,-1.671206,2.602955,-0.492193
"2018-06-07 00:59:27.215 +0000",1528333167.215019,0.204077,-1.140037,0.101680,0.084623,0.908649,-0.408891,0.000000,0.000000,0.000000,-1,0.844884,-3.086826,-1.639603,-1.578001,2.785901,-0.782912
"2018-06-07 00:59:27.225 +0000",1528333167.225094,0.144511,-1.122827,0.052495,0.062375,0.901328,-0.428617,0.000000,0.000000,0.000000,-1,2.338500,-0.937070,-1.773377,-0.755368,1.358956,0.216703
"2018-06-07 00:59:27.235 +0000",1528333167.235168,0.101296,-1.101789,0.009398,0.045707,0.892018,-0.449679,0.000000,0.000000,0.000000,-1,2.175560,-0.463163,-1.540362,-0.003547,-0.052265,0.812487
"2018-06-07 00:59:27.245 +0000",1528333167.245242,0.072731,-1.087306,-0.019187,0.033780,0.885378,-0.463639,0.000000,0.000000,0.000000,-1,1.321761,-0.217341,-1.039668,0.444354,-0.630281,1.639405
"2018-06-07 00:59:27.255 +0000",1528333167.255316,0.064871,-1.080957,-0.031694,0.030499,0.882408,-0.469490,0.000000,0.000000,0.000000,-1,0.454593,0.511820,-0.362207,0.656223,-0.896355,2.132607
"2018-06-07 00:59:27.265 +0000",1528333167.265390,0.074301,-1.082348,-0.032626,0.034834,0.883062,-0.467957,0.000000,0.000000,0.000000,-1,-0.315495,1.133908,-0.003671,0.558779,-1.163213,1.956498
"2018-06-07 00:59:27.275 +0000",1528333167.275464,0.089832,-1.089716,-0.030605,0.041512,0.886496,-0.460867,0.000000,0.000000,0.000000,-1,-0.843356,1.420980,0.038172,0.298194,-1.129934,1.375540
"2018-06-07 00:59:27.286 +0000",1528333167.285538,0.107486,-1.099701,-0.026855,0.048689,0.891072,-0.451238,0.000000,0.000000,0.000000,-1,-1.043320,1.369682,0.096565,0.229783,-1.043782,1.139562
"2018-06-07 00:59:27.296 +0000",1528333167.295612,0.126558,-1.111523,-0.018290,0.055953,0.896375,-0.439747,0.000000,0.000000,0.000000,-1,-1.275644,1.088277,0.294197,0.192598,-0.787076,1.048130
"2018-06-07 00:59:27.306 +0000",1528333167.305686,0.153310,-1.126586,-0.005652,0.065626,0.902950,-0.424699,0.000000,0.000000,0.000000,-1,-1.657721,1.774336,0.314279,0.028613,-0.310772,1.064821
"2018-06-07 00:59:27.316 +0000",1528333167.315760,0.188943,-1.145811,0.003272,0.077439,0.911045,-0.404964,0.000000,0.000000,0.000000,-1,-2.031964,3.043944,-0.073782,-0.096009,0.540402,1.031505
"2018-06-07 00:59:27.326 +0000",1528333167.325835,0.224030,-1.168127,0.001452,0.087058,0.920018,-0.382077,0.000000,0.000000,0.000000,-1,-2.171935,3.805747,-0.678984,0.034432,1.351878,0.737729
"2018-06-07 00:59:27.336 +0000",1528333167.335909,0.254842,-1.192277,-0.009162,0.093158,0.929213,-0.357604,0.000000,0.000000,0.000000,-1,-2.261075,4.067028,-1.002865,0.282208,1.780596,0.451903
"2018-06-07 00:59:27.346 +0000",1528333167.345983,0.290950,-1.217307,-0.012467,0.099302,0.938170,-0.331617,0.000000,0.000000,0.000000,-1,-2.394794,3.790747,-0.652702,0.556780,1.711549,0.261701
"2018-06-07 00:59:27.356 +0000",1528333167.356057,0.342399,-1.241380,0.007223,0.108608,0.946231,-0.304705,0.000000,0.000000,0.000000,-1,-2.502448,3.053083,0.053173,0.557300,0.983075,0.097048
"2018-06-07 00:59:27.366 +0000",1528333167.366131,0.407567,-1.263219,0.049180,0.120000,0.953070,-0.277943,0.000000,0.000000,0.000000,-1,-2.470647,2.375034,0.509352,0.278560,0.313715,0.055134
"2018-06-07 00:59:27.376 +0000",1528333167.376205,0.481056,-1.281202,0.102309,0.132130,0.958360,-0.253144,0.000000,0.000000,0.000000,-1,-2.206930,2.244537,0.651430,-0.031086,-0.107454,0.038316
"2018-06-07 00:59:27.386 +0000",1528333167.386279,0.554681,-1.295956,0.156041,0.142929,0.962469,-0.230693,0.000000,0.000000,0.000000,-1,-1.944318,2.151398,0.522556,-0.307053,-0.408681,0.021175
"2018-06-07 00:59:27.396 +0000",1528333167.396353,0.622432,-1.308706,0.205310,0.151052,0.965850,-0.210499,0.000000,0.000000,0.000000,-1,-1.713727,1.977188,0.333283,-0.525930,-0.574112,0.028401
"2018-06-07 00:59:27.406 +0000",1528333167.406427,0.683192,-1.319607,0.248822,0.156898,0.968618,-0.192760,0.000000,0.000000,0.000000,-1,-1.465444,1.785364,0.167583,-0.557609,-0.554204,0.024150
"2018-06-07 00:59:27.417 +0000",1528333167.416501,0.731769,-1.329873,0.282916,0.159420,0.971118,-0.177507,0.000000,0.000000,0.000000,-1,-1.257150,1.474242,-0.110240,-0.531521,-0.468554,-0.012740
"2018-06-07 00:59:27.427 +0000",1528333167.426576,0.766546,-1.340376,0.304082,0.158411,0.973571,-0.164499,0.000000,0.000000,0.000000,-1,-1.045576,1.397145,-0.433643,-0.477564,-0.323210,-0.041891
"2018-06-07 00:59:27.437 +0000",1528333167.436650,0.785374,-1.351733,0.310063,0.153651,0.976101,-0.153659,0.000000,0.000000,0.000000,-1,-0.846356,1.239971,-0.779838,-0.368144,-0.177563,-0.070661
"2018-06-07 00:59:27.447 +0000",1528333167.446724,0.786612,-1.363774,0.301278,0.145509,0.978647,-0.145156,0.000000,0.000000,0.000000,-1,-0.676007,0.860574,-1.031957,-0.185853,-0.077936,-0.101731
"2018-06-07 00:59:27.457 +0000",1528333167.456798,0.773005,-1.376645,0.282796,0.134713,0.981212,-0.138094,0.000000,0.000000,0.000000,-1,-0.657429,0.302538,-1.193894,0.010124,0.021886,-0.069670
"2018-06-07 00:59:27.467 +0000",1528333167.466872,0.753537,-1.390839,0.263764,0.122456,0.983851,-0.130519,0.000000,0.000000,0.000000,-1,-0.826871,-0.178617,-1.227175,0.173198,0.096532,0.051631
"2018-06-07 00:59:27.477 +0000",1528333167.476946,0.740990,-1.405806,0.253097,0.110854,0.986420,-0.121164,0.000000,0.000000,0.000000,-1,-1.003268,-0.140108,-1.102960,0.268434,0.079818,0.214212
"2018-06-07 00:59:27.487 +0000",1528333167.487020,0.749037,-1.420468,0.256978,0.101964,0.988722,-0.109662,0.000000,0.000000,0.000000,-1,-1.159012,0.648956,-0.888406,0.296901,-0.013990,0.389920
"2018-06-07 00:59:27.497 +0000",1528333167.497094,0.786710,-1.435314,0.283039,0.095615,0.990836,-0.095365,0.000000,0.000000,0.000000,-1,-1.364673,1.296468,-0.721478,0.317745,-0.081412,0.431531
"2018-06-07 00:59:27.507 +0000",1528333167.507168,0.852846,-1.450296,0.335933,0.090514,0.992749,-0.079060,0.000000,0.000000,0.000000,-1,-1.551574,1.344832,-0.598285,0.328110,-0.088696,0.181797
"2018-06-07 00:59:27.517 +0000",1528333167.517242,0.959954,-1.465079,0.431034,0.086413,0.994417,-0.060504,0.000000,0.000000,0.000000,-1,-1.812963,1.217303,-0.464678,0.292509,-0.073336,0.011340
"2018-06-07 00:59:27.527 +0000",1528333167.527317,1.125243,-1.478636,0.586032,0.083011,0.995756,-0.039645,0.000000,0.000000,0.000000,-1,-2.031965,1.056045,-0.375367,0.206143,-0.028166,-0.132352
"2018-06-07 00:59:27.537 +0000",1528333167.537391,1.342987,-1.488960,0.795424,0.079589,0.996653,-0.018451,0.000000,0.000000,0.000000,-1,-2.014964,0.846417,-0.374940,0.099275,0.020727,-0.312848
"2018-06-07 00:59:27.547 +0000",1528333167.547465,1.594283,-1.496230,1.040915,0.074426,0.997221,0.001748,0.000000,0.000000,0.000000,-1,-1.718965,0.566531,-0.451727,0.022223,0.059068,-0.498422
"2018-06-07 00:59:27.558 +0000",1528333167.557539,1.800237,-1.499456,1.243917,0.069358,0.997456,0.016199,0.000000,0.000000,0.000000,-1,-1.306484,0.278126,-0.513747,0.003869,0.066432,-0.608454
"2018-06-07 00:59:27.568 +0000",1528333167.567613,1.965205,-1.501767,1.407015,0.063624,0.997618,0.026482,0.000000,0.000000,0.000000,-1,-0.917261,0.237799,-0.586824,0.009526,0.060823,-0.588219
"2018-06-07 00:59:27.578 +0000",1528333167.577687,2.110803,-1.504465,1.549103,0.056798,0.997801,0.034047,0.000000,0.000000,0.000000,-1,-0.679237,0.434318,-0.695437,-0.004414,0.079363,-0.408742
"2018-06-07 00:59:27.588 +0000",1528333167.587761,2.284758,-1.507339,1.717773,0.047881,0.997987,0.041486,0.000000,0.000000,0.000000,-1,-0.529420,0.572393,-0.799716,0.048875,0.077986,-0.268888
"2018-06-07 00:59:27.598 +0000",1528333167.597835,2.441562,-1.510394,1.869766,0.038851,0.998176,0.046122,0.000000,0.000000,0.000000,-1,-0.411981,0.463350,-0.897110,0.117765,0.072731,-0.276271
"2018-06-07 00:59:27.608 +0000",1528333167.607909,2.609532,-1.513245,2.035340,0.029147,0.998344,0.049512,0.000000,0.000000,0.000000,-1,-0.296682,0.198316,-0.970214,0.181409,0.077065,-0.305402
"2018-06-07 00:59:27.618 +0000",1528333167.617983,2.792387,-1.515748,2.217983,0.018801,0.998485,0.051632,0.000000,0.000000,0.000000,-1,-0.180398,0.009034,-1.044174,0.234175,0.095753,-0.298641
"2018-06-07 00:59:27.628 +0000",1528333167.628057,3.009275,-1.515922,2.435411,0.007227,0.998495,0.054297,0.000000,0.000000,0.000000,-1,-0.114019,-0.024716,-1.067013,0.314993,0.134913,-0.250510
"2018-06-07 00:59:27.638 +0000",1528333167.638131,-3.090061,-1.515454,2.618504,-0.002846,0.998469,0.055171,0.000000,0.000000,0.000000,-1,-0.078282,0.163738,-0.956831,0.426491,0.179952,-0.187877
"2018-06-07 00:59:27.648 +0000",1528333167.648206,-2.945173,-1.514053,2.759983,-0.011055,0.998391,0.055555,0.000000,0.000000,0.000000,-1,-0.029781,0.418741,-0.738920,0.529274,0.207634,-0.208173
"2018-06-07 00:59:27.658 +0000",1528333167.658280,-2.841875,-1.512692,2.858290,-0.017126,0.998312,0.055420,0.000000,0.000000,0.000000,-1,0.018897,0.524468,-0.525746,0.547888,0.200388,-0.252380
"2018-06-07 00:59:27.668 +0000",1528333167.668354,-2.765645,-1.510272,2.929740,-0.022186,0.998169,0.056206,0.000000,0.000000,0.000000,-1,0.062960,0.460285,-0.374368,0.497100,0.173782,-0.281945
"2018-06-07 00:59:27.678 +0000",1528333167.678428,-2.705183,-1.510156,2.986743,-0.025591,0.998162,0.054868,0.000000,0.000000,0.000000,-1,0.150808,0.317538,-0.307219,0.417314,0.141761,-0.341672
"2018-06-07 00:59:27.689 +0000",1528333167.688502,-2.633241,-1.511625,3.056962,-0.028754,0.998250,0.051605,0.000000,0.000000,0.000000,-1,0.393600,0.134881,-0.306155,0.348334,0.127223,-0.445023
"2018-06-07 00:59:27.699 +0000",1528333167.698576,-2.502109,-1.515945,-3.093757,-0.032679,0.998496,0.043938,0.000000,0.000000,0.000000,-1,0.915906,-0.197929,-0.439548,0.348231,0.187066,-0.506310
"2018-06-07 00:59:27.709 +0000",1528333167.708650,-2.256511,-1.520994,-2.844035,-0.038475,0.998760,0.031479,0.000000,0.000000,0.000000,-1,1.528175,-0.415363,-0.539466,0.470131,0.373142,-0.384430
"2018-06-07 00:59:27.719 +0000",1528333167.718724,-1.900480,-1.526668,-2.481841,-0.041662,0.999026,0.014256,0.000000,0.000000,0.000000,-1,1.768548,-0.641085,-0.217980,0.687262,0.572049,-0.180287
"2018-06-07 00:59:27.729 +0000",1528333167.728798,-1.478569,-1.531884,-2.051581,-0.038649,0.999243,-0.003575,0.000000,0.000000,0.000000,-1,1.816864,-0.805271,0.485980,0.851088,0.610773,-0.109523
"2018-06-07 00:59:27.739 +0000",1528333167.738872,-0.884827,-1.534585,-1.450266,-0.027942,0.999344,-0.022873,0.000000,0.000000,0.000000,-1,2.000916,-0.678460,1.259316,0.801761,0.380020,-0.097412
"2018-06-07 00:59:27.749 +0000",1528333167.748946,-0.241494,-1.525973,-0.798888,-0.010697,0.998996,-0.043432,0.000000,0.000000,0.000000,-1,2.248119,-0.780383,1.907067,0.566682,0.114255,-0.206705
"2018-06-07 00:59:27.759 +0000",1528333167.759021,0.152996,-1.502456,-0.395448,0.010400,0.997666,-0.067442,0.000000,0.000000,0.000000,-1,2.439354,-0.824891,2.176487,0.069114,-0.063065,-0.223269
"2018-06-07 00:59:27.769 +0000",1528333167.769095,0.318710,-1.471436,-0.220351,0.031072,0.995068,-0.094169,0.000000,0.000000,0.000000,-1,2.717277,-0.902852,2.103555,-0.482778,-0.183163,-0.273812
"2018-06-07 00:59:27.779 +0000",1528333167.779169,0.382815,-1.437200,-0.145459,0.049745,0.991089,-0.123536,0.000000,0.000000,0.000000,-1,2.943498,-1.065085,1.934765,-0.724504,-0.128846,-0.237960
"2018-06-07 00:59:27.789 +0000",1528333167.789243,0.405169,-1.402962,-0.111133,0.065838,0.985949,-0.153505,0.000000,0.000000,0.000000,-1,3.104325,-1.167240,1.794265,-0.802166,0.081693,-0.128996
"2018-06-07 00:59:27.799 +0000",1528333167.799317,0.409965,-1.366732,-0.094729,0.080766,0.979251,-0.185844,0.000000,0.000000,0.000000,-1,3.199766,-1.090692,1.666268,-0.807557,0.412701,-0.041512
"2018-06-07 00:59:27.809 +0000",1528333167.809391,0.406108,-1.331915,-0.089798,0.093467,0.971603,-0.217359,0.000000,0.000000,0.000000,-1,3.086094,-0.775866,1.384549,-0.848457,0.867432,0.117292
"2018-06-07 00:59:27.819 +0000",1528333167.819465,0.394957,-1.301368,-0.095925,0.102414,0.963923,-0.245679,0.000000,0.000000,0.000000,-1,2.765814,-0.434513,0.922673,-0.809995,1.237447,0.273175
"2018-06-07 00:59:27.830 +0000",1528333167.829539,0.377566,-1.277179,-0.111729,0.106693,0.957203,-0.269023,0.000000,0.000000,0.000000,-1,2.423378,-0.136111,0.479008,-0.652667,1.249706,0.393917
"2018-06-07 00:59:27.840 +0000",1528333167.839613,0.361952,-1.255738,-0.129664,0.109723,0.950778,-0.289787,0.000000,0.000000,0.000000,-1,2.099373,0.243887,0.223776,-0.458264,0.986294,0.465324
"2018-06-07 00:59:27.850 +0000",1528333167.849687,0.353032,-1.237259,-0.144336,0.113190,0.944890,-0.307190,0.000000,0.000000,0.000000,-1,1.807103,0.566932,0.220007,-0.205902,0.612361,0.399200
"2018-06-07 00:59:27.860 +0000",1528333167.859761,0.352851,-1.221114,-0.151868,0.118391,0.939482,-0.321485,0.000000,0.000000,0.000000,-1,1.524441,0.713783,0.354461,0.009996,0.293306,0.276701
"2018-06-07 00:59:27.870 +0000",1528333167.869836,0.356302,-1.207319,-0.156239,0.124009,0.934666,-0.333191,0.000000,0.000000,0.000000,-1,1.428432,0.770396,0.403250,0.148787,0.094570,0.158646
"2018-06-07 00:59:27.880 +0000",1528333167.879910,0.361129,-1.192705,-0.157619,0.130429,0.929371,-0.345331,0.000000,0.000000,0.000000,-1,1.344926,0.506273,0.504859,0.297687,0.026272,0.173334
"2018-06-07 00:59:27.890 +0000",1528333167.889984,0.368749,-1.178819,-0.148564,0.137695,0.924156,-0.356331,0.000000,0.000000,0.000000,-1,1.112375,-0.297541,0.933311,0.583237,0.000695,0.345101
"2018-06-07 00:59:27.900 +0000",1528333167.900058,0.379715,-1.163074,-0.128364,0.146970,0.918026,-0.368271,0.000000,0.000000,0.000000,-1,1.216319,-0.855850,1.417641,0.669726,-0.050579,0.309662
"2018-06-07 00:59:27.910 +0000",1528333167.910132,0.393921,-1.144833,-0.102746,0.158589,0.910641,-0.381547,0.000000,0.000000,0.000000,-1,1.472214,-0.935576,1.751348,0.428387,-0.130810,0.221314
"2018-06-07 00:59:27.920 +0000",1528333167.920206,0.405565,-1.122507,-0.076309,0.171001,0.901190,-0.398261,0.000000,0.000000,0.000000,-1,1.630942,-1.351908,1.922953,0.131047,-0.160360,0.116721
"2018-06-07 00:59:27.930 +0000",1528333167.930280,0.410215,-1.100431,-0.050436,0.180742,0.891403,-0.415607,0.000000,0.000000,0.000000,-1,1.523620,-1.995363,1.890133,-0.150499,-0.128738,0.184330
"2018-06-07 00:59:27.940 +0000",1528333167.940354,0.405398,-1.080502,-0.028308,0.185708,0.882194,-0.432715,0.000000,0.000000,0.000000,-1,1.378962,-2.562303,1.648946,-0.385980,-0.116417,0.325552
"2018-06-07 00:59:27.950 +0000",1528333167.950428,0.391738,-1.064254,-0.010510,0.185229,0.874427,-0.448401,0.000000,0.000000,0.000000,-1,1.278286,-2.999589,1.409111,-0.437930,-0.176383,0.408026
"2018-06-07 00:59:27.961 +0000",1528333167.960502,0.373312,-1.048140,0.004313,0.182051,0.866496,-0.464798,0.000000,0.000000,0.000000,-1,1.197875,-3.106624,1.225049,-0.383239,-0.240413,0.482071
"2018-06-07 00:59:27.971 +0000",1528333167.970576,0.353982,-1.033215,0.016614,0.177497,0.858949,-0.480309,0.000000,0.000000,0.000000,-1,1.153735,-2.920568,1.068647,-0.343467,-0.271303,0.567361
"2018-06-07 00:59:27.981 +0000",1528333167.980651,0.336432,-1.019371,0.027962,0.172950,0.851779,-0.494528,0.000000,0.000000,0.000000,-1,1.068914,-2.632899,0.999761,-0.299873,-0.265841,0.657812
"2018-06-07 00:59:27.991 +0000",1528333167.990725,0.322537,-1.009235,0.040332,0.168790,0.846425,-0.505046,0.000000,0.000000,0.000000,-1,0.880341,-2.328393,1.035500,-0.262632,-0.238469,0.768871
"2018-06-07 00:59:28.001 +0000",1528333168.000799,0.314147,-0.999105,0.054862,0.167188,0.840987,-0.514573,0.000000,0.000000,0.000000,-1,0.660401,-1.951404,1.043554,-0.269483,-0.218260,0.854005
"2018-06-07 00:59:28.011 +0000",1528333168.010873,0.309114,-0.991185,0.068573,0.166617,0.836676,-0.521737,0.000000,0.000000,0.000000,-1,0.477246,-1.546270,0.908545,-0.364371,-0.217230,0.845726
"2018-06-07 00:59:28.021 +0000",1528333168.020947,0.305458,-0.985538,0.080503,0.166127,0.833569,-0.526840,0.000000,0.000000,0.000000,-1,0.287052,-1.303537,0.752645,-0.422047,-0.270352,0.771942
"2018-06-07 00:59:28.031 +0000",1528333168.031021,0.301369,-0.984646,0.090009,0.164192,0.833077,-0.528225,0.000000,0.000000,0.000000,-1,0.107601,-1.137528,0.574981,-0.493751,-0.345268,0.711422
"2018-06-07 00:59:28.041 +0000",1528333168.041095,0.297043,-0.983449,0.098003,0.162197,0.832414,-0.529883,0.000000,0.000000,0.000000,-1,-0.058287,-1.090152,0.423833,-0.541011,-0.425050,0.633033
"2018-06-07 00:59:28.051 +0000",1528333168.051169,0.291737,-0.984249,0.105180,0.159191,0.832857,-0.530098,0.000000,0.000000,0.000000,-1,-0.238244,-1.134204,0.338066,-0.508129,-0.491350,0.595024
"2018-06-07 00:59:28.061 +0000",1528333168.061243,0.286659,-0.987006,0.112427,0.155848,0.834379,-0.528696,0.000000,0.000000,0.000000,-1,-0.418581,-1.067532,0.288117,-0.446879,-0.536421,0.602350
"2018-06-07 00:59:28.071 +0000",1528333168.071317,0.282705,-0.993653,0.119361,0.152206,0.838025,-0.523970,0.000000,0.000000,0.000000,-1,-0.632686,-0.907680,0.247122,-0.394088,-0.573620,0.588072
"2018-06-07 00:59:28.081 +0000",1528333168.081391,0.281689,-1.000949,0.127238,0.149969,0.841983,-0.518238,0.000000,0.000000,0.000000,-1,-0.875027,-0.705005,0.184804,-0.365546,-0.593967,0.531772
"2018-06-07 00:59:28.091 +0000",1528333168.091465,0.282012,-1.010864,0.134369,0.147806,0.847291,-0.510145,0.000000,0.000000,0.000000,-1,-1.111588,-0.519599,0.055732,-0.411356,-0.593324,0.413694
"2018-06-07 00:59:28.102 +0000",1528333168.101541,0.283030,-1.023756,0.140305,0.145263,0.854068,-0.499463,0.000000,0.000000,0.000000,-1,-1.384677,-0.361626,-0.100227,-0.454207,-0.568072,0.308713
"2018-06-07 00:59:28.112 +0000",1528333168.111614,0.283806,-1.041411,0.144509,0.141405,0.863118,-0.484798,0.000000,0.000000,0.000000,-1,-1.711230,-0.243285,-0.264785,-0.482561,-0.524434,0.235866
"2018-06-07 00:59:28.122 +0000",1528333168.121688,0.284644,-1.061560,0.148111,0.136899,0.873117,-0.467890,0.000000,0.000000,0.000000,-1,-2.053398,-0.227057,-0.434981,-0.459898,-0.482675,0.160685
"2018-06-07 00:59:28.132 +0000",1528333168.131763,0.283499,-1.085230,0.149690,0.130545,0.884411,-0.448075,0.000000,0.000000,0.000000,-1,-2.341651,-0.262111,-0.644174,-0.410346,-0.393536,0.063538
"2018-06-07 00:59:28.142 +0000",1528333168.141836,0.276626,-1.111388,0.145407,0.121101,0.896315,-0.426555,0.000000,0.000000,0.000000,-1,-2.455404,-0.324585,-1.005512,-0.387077,-0.206206,-0.092045
"2018-06-07 00:59:28.152 +0000",1528333168.151910,0.257889,-1.139028,0.130828,0.106727,0.908227,-0.404634,0.000000,0.000000,0.000000,-1,-2.339122,-0.624752,-1.339026,-0.266395,0.074958,-0.412520
"2018-06-07 00:59:28.162 +0000",1528333168.161984,0.228715,-1.162018,0.107389,0.090120,0.917607,-0.387132,0.000000,0.000000,0.000000,-1,-1.834643,-0.791746,-1.496635,-0.002718,0.455440,-0.900908
"2018-06-07 00:59:28.172 +0000",1528333168.172059,0.194753,-1.177214,0.078495,0.074215,0.923541,-0.376244,0.000000,0.000000,0.000000,-1,-1.023947,-0.702286,-1.349793,0.305362,0.913648,-1.294121
"2018-06-07 00:59:28.182 +0000",1528333168.182132,0.166461,-1.182704,0.056879,0.062701,0.925633,-0.373187,0.000000,0.000000,0.000000,-1,-0.189453,-0.909031,-0.709069,0.598645,1.316219,-1.506223
"2018-06-07 00:59:28.192 +0000",1528333168.192206,0.148211,-1.181475,0.051311,0.056048,0.925167,-0.375393,0.000000,0.000000,0.000000,-1,0.425531,-1.367375,0.098150,0.744123,1.316395,-1.434040
"2018-06-07 00:59:28.202 +0000",1528333168.202281,0.142469,-1.173221,0.060027,0.054975,0.922003,-0.383256,0.000000,0.000000,0.000000,-1,0.863246,-1.310913,0.537250,0.455279,0.868159,-0.914794
"2018-06-07 00:59:28.212 +0000",1528333168.212354,0.146160,-1.161659,0.074463,0.057937,0.917464,-0.393572,0.000000,0.000000,0.000000,-1,1.094142,-0.822753,0.773708,0.097748,0.414781,-0.325804
"2018-06-07 00:59:28.222 +0000",1528333168.222430,0.156579,-1.149233,0.092517,0.063808,0.912450,-0.404177,0.000000,0.000000,0.000000,-1,1.108378,-0.576416,0.941117,-0.192699,0.115199,-0.043516
"2018-06-07 00:59:28.233 +0000",1528333168.232503,0.165836,-1.138955,0.110016,0.069091,0.908197,-0.412797,0.000000,0.000000,0.000000,-1,0.992532,-0.651594,0.990643,-0.429153,-0.166345,-0.104964
"2018-06-07 00:59:28.243 +0000",1528333168.242578,0.173433,-1.130085,0.126856,0.073613,0.904448,-0.420179,0.000000,0.000000,0.000000,-1,0.655006,-0.783388,0.781282,-0.593235,-0.465422,-0.211885
"2018-06-07 00:59:28.253 +0000",1528333168.252651,0.182602,-1.123932,0.137399,0.078471,0.901807,-0.424951,0.000000,0.000000,0.000000,-1,0.526105,0.420765,0.458084,-0.728465,-0.711713,-0.302634
"2018-06-07 00:59:28.263 +0000",1528333168.262725,0.190378,-1.121062,0.132556,0.082262,0.900563,-0.426868,0.000000,0.000000,0.000000,-1,0.177188,1.077731,-0.416932,-1.176974,-0.245136,0.258090
"2018-06-07 00:59:28.273 +0000",1528333168.272799,0.147036,-1.128270,0.101631,0.062737,0.903673,-0.423598,0.000000,0.000000,0.000000,-1,-0.522888,-2.441113,-1.551766,-2.001992,1.038542,-0.450684
"2018-06-07 00:59:28.283 +0000",1528333168.282874,0.061743,-1.136727,0.051527,0.025950,0.907262,-0.419760,0.000000,0.000000,0.000000,-1,-0.562428,-4.079025,-2.355644,-1.925318,2.073039,-0.386560
"2018-06-07 00:59:28.293 +0000",1528333168.292947,-0.018583,-1.135792,-0.010974,-0.007831,0.906868,-0.421337,0.000000,0.000000,0.000000,-1,0.417428,-1.558965,-2.652813,-0.742078,1.792503,0.265926
"2018-06-07 00:59:28.303 +0000",1528333168.303021,-0.067577,-1.125249,-0.065933,-0.029100,0.902375,-0.429963,0.000000,0.000000,0.000000,-1,1.040338,0.404864,-2.219345,0.627855,0.946319,0.386186
"2018-06-07 00:59:28.313 +0000",1528333168.313096,-0.093854,-1.113406,-0.106037,-0.041385,0.897208,-0.439660,0.000000,0.000000,0.000000,-1,1.140326,1.223374,-1.526629,1.318805,0.374993,0.764672
"2018-06-07 00:59:28.323 +0000",1528333168.323169,-0.095843,-1.102749,-0.123345,-0.043172,0.892451,-0.449069,0.000000,0.000000,0.000000,-1,0.883244,1.294569,-0.610459,1.334692,-0.200496,1.455142
"2018-06-07 00:59:28.333 +0000",1528333168.333243,-0.081157,-1.098548,-0.120593,-0.036876,0.890548,-0.453388,0.000000,0.000000,0.000000,-1,0.235837,1.251769,0.267550,1.103344,-0.715240,1.803073
"2018-06-07 00:59:28.343 +0000",1528333168.343318,-0.055556,-1.104199,-0.106007,-0.024979,0.893104,-0.449152,0.000000,0.000000,0.000000,-1,-0.754550,1.218208,0.808618,0.630463,-1.083427,1.825143
